rt,stimulus,response,trial_type,trial_index,plugin_version,time_elapsed,participant_id,prolific_pid,prolific_study_id,prolific_session_id,date_iso,view_history,question_order,correct,choice,outcome,balance,banner,win_status,hot_set_size,hot_numbers,outcome_rel_to_hot
2427,"<p><b>Consent Form</b></p> <div style=""text-align:left;background-color:lightblue; padding:20px; max-width:900px;""><p><b>Description:</b> Welcome! You are invited to participate in a research study in cognitive psychology. You will be asked to perform various tasks on a computer which may include: looking at images or videos, listening to sounds, reading scenarios, or playing games. You may be asked a number of different questions about your feelings and yourself. All information collected will remain confidential. </p> <p> <b>Risks and benefits:</b> Risks involved in this study are the same as those normally associated with using a computer (e.g., mild eye/arm strain). If you have any pre- existing conditions that might make reading and completing a computer-based survey strenuous for you, you should probably elect to not participate in this study. If at any time during the study you feel unable to participate because you are experiencing strain, you may end your participation without penalty. We cannot and do not guarantee or promise that you will receive any benefits from this study. Your decision whether or not to participate in this study will not affect your employment, medical care, and/or grades in school. </p><p><b>Time involvement:</b> Your participation in this experiment will take 5-10 minutes. </p><p><b> Payment:</b> You will receive compensation as indicated in the Prolific listing. </p><p><b>Subject's rights:</b> If you have read this notice and have decided to participate in this project, please understand your participation is voluntary and you have the right to withdraw your consent or discontinue participation at any time without penalty or loss of benefits to which you are otherwise entitled. You have the right to refuse to answer particular questions. Your individual privacy will be maintained in all published and written data resulting from the study. </p><p><b>Contact information:</b> If you have any questions, concerns or complaints about this research study, its procedures, or risks and benefits, you should ask the Protocol Director, (Kate Petrova, Email: kpetrova@stanford.edu). </p><p><b>Independent contact:</b> If you are not satisfied with how this study is being conducted, or if you have any concerns, complaints, or general questions about the research or your rights as a participant, please contact the Stanford Institutional Review Board (IRB) to speak to someone independent of the research team via email at irb2-manager@lists.stanford.edu, or via phone at (650) 723-2480 or toll free at 1-866-680-2906. You can also write to the Stanford IRB, Stanford University, 3000 El Camino Real, Five Palo Alto Square, 4th Floor, Palo Alto, CA 94306. </p><p>You may want to print a copy of this consent form to keep. By clicking the button below, you acknowledge that you have read the above information, that you are 18 years of age, or older and give your consent to participate in our internet-based study and consent for us to analyze the resulting data. </p> </div><p> Do you agree with the terms of the experiment as explained above? </p>",0,html-button-response,0,2.1.0,2429,5484739ffdf99b0379939c95,5484739ffdf99b0379939c95,696a97ad50e2fdc7466c7392,69711a1be17ca34c609113c2,2026-01-21T18:27:54Z,NA,NA,NA,NA,NA,NA,NA,NA,NA,NA,NA
64217,NA,NA,instructions,1,2.1.0,66645,5484739ffdf99b0379939c95,5484739ffdf99b0379939c95,696a97ad50e2fdc7466c7392,69711a1be17ca34c609113c2,2026-01-21T18:27:54Z,"[{""page_index"":0,""viewing_time"":3819},{""page_index"":1,""viewing_time"":4862},{""page_index"":2,""viewing_time"":7965},{""page_index"":3,""viewing_time"":7530},{""page_index"":4,""viewing_time"":5904},{""page_index"":5,""viewing_time"":4291},{""page_index"":6,""viewing_time"":4885},{""page_index"":7,""viewing_time"":12874},{""page_index"":8,""viewing_time"":7778},{""page_index"":9,""viewing_time"":1822},{""page_index"":10,""viewing_time"":2487}]",NA,NA,NA,NA,NA,NA,NA,NA,NA,NA
20716,NA,"{""Q0"":""False"",""Q1"":""True"",""Q2"":""True"",""Q3"":""True"",""Q4"":""True""}",survey-multi-choice,2,2.1.0,87362,5484739ffdf99b0379939c95,5484739ffdf99b0379939c95,696a97ad50e2fdc7466c7392,69711a1be17ca34c609113c2,2026-01-21T18:27:54Z,NA,"[0,1,2,3,4]",FALSE,NA,NA,NA,NA,NA,NA,NA,NA
1229,"
          <h3>Oh no!</h3>
          <p>You got one or more questions wrong.</p>
          <p>Please go back, review the instructions, and try the comprehension check again!</p>
",0,html-button-response,3,2.1.0,88594,5484739ffdf99b0379939c95,5484739ffdf99b0379939c95,696a97ad50e2fdc7466c7392,69711a1be17ca34c609113c2,2026-01-21T18:27:54Z,NA,NA,NA,NA,NA,NA,NA,NA,NA,NA,NA
15050,NA,NA,instructions,4,2.1.0,103646,5484739ffdf99b0379939c95,5484739ffdf99b0379939c95,696a97ad50e2fdc7466c7392,69711a1be17ca34c609113c2,2026-01-21T18:27:54Z,"[{""page_index"":0,""viewing_time"":1155},{""page_index"":1,""viewing_time"":993},{""page_index"":2,""viewing_time"":1756},{""page_index"":3,""viewing_time"":908},{""page_index"":4,""viewing_time"":1041},{""page_index"":5,""viewing_time"":2494},{""page_index"":6,""viewing_time"":1302},{""page_index"":7,""viewing_time"":1390},{""page_index"":8,""viewing_time"":1926},{""page_index"":9,""viewing_time"":641},{""page_index"":10,""viewing_time"":1445}]",NA,NA,NA,NA,NA,NA,NA,NA,NA,NA
10739,NA,"{""Q0"":""False"",""Q1"":""True"",""Q2"":""False"",""Q3"":""True"",""Q4"":""True""}",survey-multi-choice,5,2.1.0,114387,5484739ffdf99b0379939c95,5484739ffdf99b0379939c95,696a97ad50e2fdc7466c7392,69711a1be17ca34c609113c2,2026-01-21T18:27:54Z,NA,"[0,1,2,3,4]",TRUE,NA,NA,NA,NA,NA,NA,NA,NA
3637,"
        <h3>You are now ready to begin the game.</h3>
        <p>Remember, your goal is to earn as much money as you can.</p>
        <p><b>May the odds be in your favor!</b></p>
        <p>Press any key to start.</p>
",NA,html-keyboard-response,7,2.1.0,118027,5484739ffdf99b0379939c95,5484739ffdf99b0379939c95,696a97ad50e2fdc7466c7392,69711a1be17ca34c609113c2,2026-01-21T18:27:54Z,NA,NA,NA,NA,NA,NA,NA,NA,NA,NA,NA
NA,NA,NA,html-keyboard-response,8,2.1.0,120879,5484739ffdf99b0379939c95,5484739ffdf99b0379939c95,696a97ad50e2fdc7466c7392,69711a1be17ca34c609113c2,2026-01-21T18:27:54Z,NA,NA,NA,9,2,0.09000000000000001,0,0,0,[],NA
2402,"
            <div style=""max-width:720px; margin:0 auto;"">
              <img
                src=""img/loss.png""
                alt=""Loss""
                style=""
                  display:block;
                  margin: 0 auto 14px;
                  width: min(280px, 60vw);
                  border-radius: 14px;
                  box-shadow: 0 10px 24px rgba(0,0,0,0.12);
                ""
              />

              <h2 style=""color:#b3122a; margin-bottom:6px;"">
                You lost.
              </h2>

              <p>Winning number: <b>2</b></p>

              <div id=""balance-display"">
                Balance: $0.09
              </div>

              <p style=""margin-top:14px;"">Press any key to continue.</p>
            </div>
",NA,html-keyboard-response,9,2.1.0,123282,5484739ffdf99b0379939c95,5484739ffdf99b0379939c95,696a97ad50e2fdc7466c7392,69711a1be17ca34c609113c2,2026-01-21T18:27:54Z,NA,NA,NA,NA,NA,NA,NA,NA,NA,NA,NA
4504,NA,"{""regret_chosen"":28,""regret_not_winner"":79}",survey-html-form,10,2.1.0,127788,5484739ffdf99b0379939c95,5484739ffdf99b0379939c95,696a97ad50e2fdc7466c7392,69711a1be17ca34c609113c2,2026-01-21T18:27:54Z,NA,NA,NA,9,2,NA,0,NA,NA,[],NA
NA,NA,NA,html-keyboard-response,11,2.1.0,131606,5484739ffdf99b0379939c95,5484739ffdf99b0379939c95,696a97ad50e2fdc7466c7392,69711a1be17ca34c609113c2,2026-01-21T18:27:54Z,NA,NA,NA,29,1,0.08000000000000002,1,0,2,"[1,34]",hot_win_number
2625,"
            <div style=""max-width:720px; margin:0 auto;"">
              <img
                src=""img/loss.png""
                alt=""Loss""
                style=""
                  display:block;
                  margin: 0 auto 14px;
                  width: min(280px, 60vw);
                  border-radius: 14px;
                  box-shadow: 0 10px 24px rgba(0,0,0,0.12);
                ""
              />

              <h2 style=""color:#b3122a; margin-bottom:6px;"">
                You lost.
              </h2>

              <p>Winning number: <b>1</b></p>

              <div id=""balance-display"">
                Balance: $0.08
              </div>

              <p style=""margin-top:14px;"">Press any key to continue.</p>
            </div>
",NA,html-keyboard-response,12,2.1.0,134231,5484739ffdf99b0379939c95,5484739ffdf99b0379939c95,696a97ad50e2fdc7466c7392,69711a1be17ca34c609113c2,2026-01-21T18:27:54Z,NA,NA,NA,NA,NA,NA,NA,NA,NA,NA,NA
8446,NA,"{""regret_chosen"":84,""regret_not_winner"":100,""regret_not_hot_probe"":0}",survey-html-form,13,2.1.0,142677,5484739ffdf99b0379939c95,5484739ffdf99b0379939c95,696a97ad50e2fdc7466c7392,69711a1be17ca34c609113c2,2026-01-21T18:27:54Z,NA,NA,NA,29,1,NA,1,NA,NA,"[1,34]",hot_win_number
NA,NA,NA,html-keyboard-response,14,2.1.0,146570,5484739ffdf99b0379939c95,5484739ffdf99b0379939c95,696a97ad50e2fdc7466c7392,69711a1be17ca34c609113c2,2026-01-21T18:27:54Z,NA,NA,NA,19,4,0.07000000000000002,1,0,16,"[2,22,4,11,24,35,14,17,28,29,5,8,33,16,6,21]",hot_win_number
2885,"
            <div style=""max-width:720px; margin:0 auto;"">
              <img
                src=""img/loss.png""
                alt=""Loss""
                style=""
                  display:block;
                  margin: 0 auto 14px;
                  width: min(280px, 60vw);
                  border-radius: 14px;
                  box-shadow: 0 10px 24px rgba(0,0,0,0.12);
                ""
              />

              <h2 style=""color:#b3122a; margin-bottom:6px;"">
                You lost.
              </h2>

              <p>Winning number: <b>4</b></p>

              <div id=""balance-display"">
                Balance: $0.07
              </div>

              <p style=""margin-top:14px;"">Press any key to continue.</p>
            </div>
",NA,html-keyboard-response,15,2.1.0,149456,5484739ffdf99b0379939c95,5484739ffdf99b0379939c95,696a97ad50e2fdc7466c7392,69711a1be17ca34c609113c2,2026-01-21T18:27:54Z,NA,NA,NA,NA,NA,NA,NA,NA,NA,NA,NA
8120,NA,"{""regret_chosen"":52,""regret_not_winner"":100,""regret_not_hot_probe"":5}",survey-html-form,16,2.1.0,157577,5484739ffdf99b0379939c95,5484739ffdf99b0379939c95,696a97ad50e2fdc7466c7392,69711a1be17ca34c609113c2,2026-01-21T18:27:54Z,NA,NA,NA,19,4,NA,1,NA,NA,"[2,22,4,11,24,35,14,17,28,29,5,8,33,16,6,21]",hot_win_number
NA,NA,NA,html-keyboard-response,17,2.1.0,162229,5484739ffdf99b0379939c95,5484739ffdf99b0379939c95,696a97ad50e2fdc7466c7392,69711a1be17ca34c609113c2,2026-01-21T18:27:54Z,NA,NA,NA,17,17,0.42,0,1,0,[],NA
3187,"
            <div style=""max-width:720px; margin:0 auto;"">
              <img
                src=""img/gain.png""
                alt=""Win""
                style=""
                  display:block;
                  margin: 0 auto 14px;
                  width: min(280px, 60vw);
                  border-radius: 14px;
                  box-shadow: 0 10px 24px rgba(0,0,0,0.12);
                ""
              />

              <h2 style=""color:#1a7f37; margin-bottom:6px;"">
                You WON!
              </h2>

              <p>Winning number: <b>17</b></p>

              <div id=""balance-display"">
                Balance: $0.42
              </div>

              <p style=""margin-top:14px;"">Press any key to continue.</p>
            </div>
",NA,html-keyboard-response,18,2.1.0,165417,5484739ffdf99b0379939c95,5484739ffdf99b0379939c95,696a97ad50e2fdc7466c7392,69711a1be17ca34c609113c2,2026-01-21T18:27:54Z,NA,NA,NA,NA,NA,NA,NA,NA,NA,NA,NA
3049,NA,"{""regret_chosen"":0}",survey-html-form,19,2.1.0,168469,5484739ffdf99b0379939c95,5484739ffdf99b0379939c95,696a97ad50e2fdc7466c7392,69711a1be17ca34c609113c2,2026-01-21T18:27:54Z,NA,NA,NA,17,17,NA,0,NA,NA,[],NA
8454,NA,"{""feedback"":"""",""age"":37,""gamble_freq_12mo"":""Never"",""race"":""White"",""gender"":""Female"",""ethnicity"":""Non-Hispanic""}",survey-html-form,20,2.1.0,176925,5484739ffdf99b0379939c95,5484739ffdf99b0379939c95,696a97ad50e2fdc7466c7392,69711a1be17ca34c609113c2,2026-01-21T18:27:54Z,NA,NA,NA,NA,NA,NA,NA,NA,NA,NA,NA
4604,"<p><b>Consent Form</b></p> <div style=""text-align:left;background-color:lightblue; padding:20px; max-width:900px;""><p><b>Description:</b> Welcome! You are invited to participate in a research study in cognitive psychology. You will be asked to perform various tasks on a computer which may include: looking at images or videos, listening to sounds, reading scenarios, or playing games. You may be asked a number of different questions about your feelings and yourself. All information collected will remain confidential. </p> <p> <b>Risks and benefits:</b> Risks involved in this study are the same as those normally associated with using a computer (e.g., mild eye/arm strain). If you have any pre- existing conditions that might make reading and completing a computer-based survey strenuous for you, you should probably elect to not participate in this study. If at any time during the study you feel unable to participate because you are experiencing strain, you may end your participation without penalty. We cannot and do not guarantee or promise that you will receive any benefits from this study. Your decision whether or not to participate in this study will not affect your employment, medical care, and/or grades in school. </p><p><b>Time involvement:</b> Your participation in this experiment will take 5-10 minutes. </p><p><b> Payment:</b> You will receive compensation as indicated in the Prolific listing. </p><p><b>Subject's rights:</b> If you have read this notice and have decided to participate in this project, please understand your participation is voluntary and you have the right to withdraw your consent or discontinue participation at any time without penalty or loss of benefits to which you are otherwise entitled. You have the right to refuse to answer particular questions. Your individual privacy will be maintained in all published and written data resulting from the study. </p><p><b>Contact information:</b> If you have any questions, concerns or complaints about this research study, its procedures, or risks and benefits, you should ask the Protocol Director, (Kate Petrova, Email: kpetrova@stanford.edu). </p><p><b>Independent contact:</b> If you are not satisfied with how this study is being conducted, or if you have any concerns, complaints, or general questions about the research or your rights as a participant, please contact the Stanford Institutional Review Board (IRB) to speak to someone independent of the research team via email at irb2-manager@lists.stanford.edu, or via phone at (650) 723-2480 or toll free at 1-866-680-2906. You can also write to the Stanford IRB, Stanford University, 3000 El Camino Real, Five Palo Alto Square, 4th Floor, Palo Alto, CA 94306. </p><p>You may want to print a copy of this consent form to keep. By clicking the button below, you acknowledge that you have read the above information, that you are 18 years of age, or older and give your consent to participate in our internet-based study and consent for us to analyze the resulting data. </p> </div><p> Do you agree with the terms of the experiment as explained above? </p>",0,html-button-response,0,2.1.0,4608,558955ebfdf99b6bd06016c9,558955ebfdf99b6bd06016c9,696a97ad50e2fdc7466c7392,696ecb35041f7d88f187e355,2026-01-20T00:24:29Z,NA,NA,NA,NA,NA,NA,NA,NA,NA,NA,NA
48924,NA,NA,instructions,1,2.1.0,53538,558955ebfdf99b6bd06016c9,558955ebfdf99b6bd06016c9,696a97ad50e2fdc7466c7392,696ecb35041f7d88f187e355,2026-01-20T00:24:29Z,"[{""page_index"":0,""viewing_time"":2580},{""page_index"":1,""viewing_time"":5314},{""page_index"":2,""viewing_time"":7161},{""page_index"":3,""viewing_time"":6063},{""page_index"":4,""viewing_time"":3402},{""page_index"":5,""viewing_time"":2487},{""page_index"":6,""viewing_time"":3334},{""page_index"":7,""viewing_time"":5564},{""page_index"":8,""viewing_time"":9476},{""page_index"":9,""viewing_time"":1824},{""page_index"":10,""viewing_time"":1719}]",NA,NA,NA,NA,NA,NA,NA,NA,NA,NA
11988,NA,"{""Q0"":""False"",""Q1"":""True"",""Q2"":""False"",""Q3"":""True"",""Q4"":""True""}",survey-multi-choice,2,2.1.0,65530,558955ebfdf99b6bd06016c9,558955ebfdf99b6bd06016c9,696a97ad50e2fdc7466c7392,696ecb35041f7d88f187e355,2026-01-20T00:24:29Z,NA,"[0,1,2,3,4]",TRUE,NA,NA,NA,NA,NA,NA,NA,NA
2092,"
        <h3>You are now ready to begin the game.</h3>
        <p>Remember, your goal is to earn as much money as you can.</p>
        <p><b>May the odds be in your favor!</b></p>
        <p>Press any key to start.</p>
",NA,html-keyboard-response,4,2.1.0,67627,558955ebfdf99b6bd06016c9,558955ebfdf99b6bd06016c9,696a97ad50e2fdc7466c7392,696ecb35041f7d88f187e355,2026-01-20T00:24:29Z,NA,NA,NA,NA,NA,NA,NA,NA,NA,NA,NA
NA,NA,NA,html-keyboard-response,5,2.1.0,68453,558955ebfdf99b6bd06016c9,558955ebfdf99b6bd06016c9,696a97ad50e2fdc7466c7392,696ecb35041f7d88f187e355,2026-01-20T00:24:29Z,NA,NA,NA,24,16,0.29,0,0,0,[],NA
1495,"
            <div style=""max-width:720px; margin:0 auto;"">
              <img
                src=""img/loss.png""
                alt=""Loss""
                style=""
                  display:block;
                  margin: 0 auto 14px;
                  width: min(280px, 60vw);
                  border-radius: 14px;
                  box-shadow: 0 10px 24px rgba(0,0,0,0.12);
                ""
              />

              <h2 style=""color:#b3122a; margin-bottom:6px;"">
                You lost.
              </h2>

              <p>Winning number: <b>16</b></p>

              <div id=""balance-display"">
                Balance: $0.29
              </div>

              <p style=""margin-top:14px;"">Press any key to continue.</p>
            </div>
",NA,html-keyboard-response,6,2.1.0,69954,558955ebfdf99b6bd06016c9,558955ebfdf99b6bd06016c9,696a97ad50e2fdc7466c7392,696ecb35041f7d88f187e355,2026-01-20T00:24:29Z,NA,NA,NA,NA,NA,NA,NA,NA,NA,NA,NA
12019,NA,"{""regret_chosen"":10,""regret_not_winner"":70}",survey-html-form,7,2.1.0,81979,558955ebfdf99b6bd06016c9,558955ebfdf99b6bd06016c9,696a97ad50e2fdc7466c7392,696ecb35041f7d88f187e355,2026-01-20T00:24:29Z,NA,NA,NA,24,16,NA,0,NA,NA,[],NA
NA,NA,NA,html-keyboard-response,8,2.1.0,83331,558955ebfdf99b6bd06016c9,558955ebfdf99b6bd06016c9,696a97ad50e2fdc7466c7392,696ecb35041f7d88f187e355,2026-01-20T00:24:29Z,NA,NA,NA,24,18,0.27999999999999997,1,0,8,"[26,18,29,3,33,1,27,22]",hot_win_number
840,"
            <div style=""max-width:720px; margin:0 auto;"">
              <img
                src=""img/loss.png""
                alt=""Loss""
                style=""
                  display:block;
                  margin: 0 auto 14px;
                  width: min(280px, 60vw);
                  border-radius: 14px;
                  box-shadow: 0 10px 24px rgba(0,0,0,0.12);
                ""
              />

              <h2 style=""color:#b3122a; margin-bottom:6px;"">
                You lost.
              </h2>

              <p>Winning number: <b>18</b></p>

              <div id=""balance-display"">
                Balance: $0.28
              </div>

              <p style=""margin-top:14px;"">Press any key to continue.</p>
            </div>
",NA,html-keyboard-response,9,2.1.0,84174,558955ebfdf99b6bd06016c9,558955ebfdf99b6bd06016c9,696a97ad50e2fdc7466c7392,696ecb35041f7d88f187e355,2026-01-20T00:24:29Z,NA,NA,NA,NA,NA,NA,NA,NA,NA,NA,NA
10481,NA,"{""regret_chosen"":11,""regret_not_winner"":89,""regret_not_hot_probe"":0}",survey-html-form,10,2.1.0,94655,558955ebfdf99b6bd06016c9,558955ebfdf99b6bd06016c9,696a97ad50e2fdc7466c7392,696ecb35041f7d88f187e355,2026-01-20T00:24:29Z,NA,NA,NA,24,18,NA,1,NA,NA,"[26,18,29,3,33,1,27,22]",hot_win_number
NA,NA,NA,html-keyboard-response,11,2.1.0,95511,558955ebfdf99b6bd06016c9,558955ebfdf99b6bd06016c9,696a97ad50e2fdc7466c7392,696ecb35041f7d88f187e355,2026-01-20T00:24:29Z,NA,NA,NA,24,36,0.26999999999999996,0,0,0,[],NA
655,"
            <div style=""max-width:720px; margin:0 auto;"">
              <img
                src=""img/loss.png""
                alt=""Loss""
                style=""
                  display:block;
                  margin: 0 auto 14px;
                  width: min(280px, 60vw);
                  border-radius: 14px;
                  box-shadow: 0 10px 24px rgba(0,0,0,0.12);
                ""
              />

              <h2 style=""color:#b3122a; margin-bottom:6px;"">
                You lost.
              </h2>

              <p>Winning number: <b>36</b></p>

              <div id=""balance-display"">
                Balance: $0.27
              </div>

              <p style=""margin-top:14px;"">Press any key to continue.</p>
            </div>
",NA,html-keyboard-response,12,2.1.0,96168,558955ebfdf99b6bd06016c9,558955ebfdf99b6bd06016c9,696a97ad50e2fdc7466c7392,696ecb35041f7d88f187e355,2026-01-20T00:24:29Z,NA,NA,NA,NA,NA,NA,NA,NA,NA,NA,NA
4719,NA,"{""regret_chosen"":9,""regret_not_winner"":80}",survey-html-form,13,2.1.0,100887,558955ebfdf99b6bd06016c9,558955ebfdf99b6bd06016c9,696a97ad50e2fdc7466c7392,696ecb35041f7d88f187e355,2026-01-20T00:24:29Z,NA,NA,NA,24,36,NA,0,NA,NA,[],NA
NA,NA,NA,html-keyboard-response,14,2.1.0,101916,558955ebfdf99b6bd06016c9,558955ebfdf99b6bd06016c9,696a97ad50e2fdc7466c7392,696ecb35041f7d88f187e355,2026-01-20T00:24:29Z,NA,NA,NA,24,28,0.25999999999999995,1,0,8,"[34,7,27,4,5,16,33,29]",nonhot_win_number
610,"
            <div style=""max-width:720px; margin:0 auto;"">
              <img
                src=""img/loss.png""
                alt=""Loss""
                style=""
                  display:block;
                  margin: 0 auto 14px;
                  width: min(280px, 60vw);
                  border-radius: 14px;
                  box-shadow: 0 10px 24px rgba(0,0,0,0.12);
                ""
              />

              <h2 style=""color:#b3122a; margin-bottom:6px;"">
                You lost.
              </h2>

              <p>Winning number: <b>28</b></p>

              <div id=""balance-display"">
                Balance: $0.26
              </div>

              <p style=""margin-top:14px;"">Press any key to continue.</p>
            </div>
",NA,html-keyboard-response,15,2.1.0,102527,558955ebfdf99b6bd06016c9,558955ebfdf99b6bd06016c9,696a97ad50e2fdc7466c7392,696ecb35041f7d88f187e355,2026-01-20T00:24:29Z,NA,NA,NA,NA,NA,NA,NA,NA,NA,NA,NA
9756,NA,"{""regret_chosen"":6,""regret_not_winner"":88,""regret_not_hot_probe"":0}",survey-html-form,16,2.1.0,112284,558955ebfdf99b6bd06016c9,558955ebfdf99b6bd06016c9,696a97ad50e2fdc7466c7392,696ecb35041f7d88f187e355,2026-01-20T00:24:29Z,NA,NA,NA,24,28,NA,1,NA,NA,"[34,7,27,4,5,16,33,29]",nonhot_win_number
NA,NA,NA,html-keyboard-response,17,2.1.0,113085,558955ebfdf99b6bd06016c9,558955ebfdf99b6bd06016c9,696a97ad50e2fdc7466c7392,696ecb35041f7d88f187e355,2026-01-20T00:24:29Z,NA,NA,NA,24,24,0.6099999999999999,0,1,0,[],NA
1703,"
            <div style=""max-width:720px; margin:0 auto;"">
              <img
                src=""img/gain.png""
                alt=""Win""
                style=""
                  display:block;
                  margin: 0 auto 14px;
                  width: min(280px, 60vw);
                  border-radius: 14px;
                  box-shadow: 0 10px 24px rgba(0,0,0,0.12);
                ""
              />

              <h2 style=""color:#1a7f37; margin-bottom:6px;"">
                You WON!
              </h2>

              <p>Winning number: <b>24</b></p>

              <div id=""balance-display"">
                Balance: $0.61
              </div>

              <p style=""margin-top:14px;"">Press any key to continue.</p>
            </div>
",NA,html-keyboard-response,18,2.1.0,114790,558955ebfdf99b6bd06016c9,558955ebfdf99b6bd06016c9,696a97ad50e2fdc7466c7392,696ecb35041f7d88f187e355,2026-01-20T00:24:29Z,NA,NA,NA,NA,NA,NA,NA,NA,NA,NA,NA
3226,NA,"{""regret_chosen"":0}",survey-html-form,19,2.1.0,118018,558955ebfdf99b6bd06016c9,558955ebfdf99b6bd06016c9,696a97ad50e2fdc7466c7392,696ecb35041f7d88f187e355,2026-01-20T00:24:29Z,NA,NA,NA,24,24,NA,0,NA,NA,[],NA
NA,NA,NA,html-keyboard-response,20,2.1.0,121190,558955ebfdf99b6bd06016c9,558955ebfdf99b6bd06016c9,696a97ad50e2fdc7466c7392,696ecb35041f7d88f187e355,2026-01-20T00:24:29Z,NA,NA,NA,20,21,0.5999999999999999,0,0,0,[],NA
1160,"
            <div style=""max-width:720px; margin:0 auto;"">
              <img
                src=""img/loss.png""
                alt=""Loss""
                style=""
                  display:block;
                  margin: 0 auto 14px;
                  width: min(280px, 60vw);
                  border-radius: 14px;
                  box-shadow: 0 10px 24px rgba(0,0,0,0.12);
                ""
              />

              <h2 style=""color:#b3122a; margin-bottom:6px;"">
                You lost.
              </h2>

              <p>Winning number: <b>21</b></p>

              <div id=""balance-display"">
                Balance: $0.60
              </div>

              <p style=""margin-top:14px;"">Press any key to continue.</p>
            </div>
",NA,html-keyboard-response,21,2.1.0,122351,558955ebfdf99b6bd06016c9,558955ebfdf99b6bd06016c9,696a97ad50e2fdc7466c7392,696ecb35041f7d88f187e355,2026-01-20T00:24:29Z,NA,NA,NA,NA,NA,NA,NA,NA,NA,NA,NA
5926,NA,"{""regret_chosen"":16,""regret_not_winner"":83}",survey-html-form,22,2.1.0,128279,558955ebfdf99b6bd06016c9,558955ebfdf99b6bd06016c9,696a97ad50e2fdc7466c7392,696ecb35041f7d88f187e355,2026-01-20T00:24:29Z,NA,NA,NA,20,21,NA,0,NA,NA,[],NA
NA,NA,NA,html-keyboard-response,23,2.1.0,129019,558955ebfdf99b6bd06016c9,558955ebfdf99b6bd06016c9,696a97ad50e2fdc7466c7392,696ecb35041f7d88f187e355,2026-01-20T00:24:29Z,NA,NA,NA,20,29,0.5899999999999999,0,0,0,[],NA
551,"
            <div style=""max-width:720px; margin:0 auto;"">
              <img
                src=""img/loss.png""
                alt=""Loss""
                style=""
                  display:block;
                  margin: 0 auto 14px;
                  width: min(280px, 60vw);
                  border-radius: 14px;
                  box-shadow: 0 10px 24px rgba(0,0,0,0.12);
                ""
              />

              <h2 style=""color:#b3122a; margin-bottom:6px;"">
                You lost.
              </h2>

              <p>Winning number: <b>29</b></p>

              <div id=""balance-display"">
                Balance: $0.59
              </div>

              <p style=""margin-top:14px;"">Press any key to continue.</p>
            </div>
",NA,html-keyboard-response,24,2.1.0,129572,558955ebfdf99b6bd06016c9,558955ebfdf99b6bd06016c9,696a97ad50e2fdc7466c7392,696ecb35041f7d88f187e355,2026-01-20T00:24:29Z,NA,NA,NA,NA,NA,NA,NA,NA,NA,NA,NA
4654,NA,"{""regret_chosen"":10,""regret_not_winner"":83}",survey-html-form,25,2.1.0,134229,558955ebfdf99b6bd06016c9,558955ebfdf99b6bd06016c9,696a97ad50e2fdc7466c7392,696ecb35041f7d88f187e355,2026-01-20T00:24:29Z,NA,NA,NA,20,29,NA,0,NA,NA,[],NA
NA,NA,NA,html-keyboard-response,26,2.1.0,134859,558955ebfdf99b6bd06016c9,558955ebfdf99b6bd06016c9,696a97ad50e2fdc7466c7392,696ecb35041f7d88f187e355,2026-01-20T00:24:29Z,NA,NA,NA,20,30,0.5799999999999998,0,0,0,[],NA
667,"
            <div style=""max-width:720px; margin:0 auto;"">
              <img
                src=""img/loss.png""
                alt=""Loss""
                style=""
                  display:block;
                  margin: 0 auto 14px;
                  width: min(280px, 60vw);
                  border-radius: 14px;
                  box-shadow: 0 10px 24px rgba(0,0,0,0.12);
                ""
              />

              <h2 style=""color:#b3122a; margin-bottom:6px;"">
                You lost.
              </h2>

              <p>Winning number: <b>30</b></p>

              <div id=""balance-display"">
                Balance: $0.58
              </div>

              <p style=""margin-top:14px;"">Press any key to continue.</p>
            </div>
",NA,html-keyboard-response,27,2.1.0,135526,558955ebfdf99b6bd06016c9,558955ebfdf99b6bd06016c9,696a97ad50e2fdc7466c7392,696ecb35041f7d88f187e355,2026-01-20T00:24:29Z,NA,NA,NA,NA,NA,NA,NA,NA,NA,NA,NA
3206,NA,"{""regret_chosen"":13,""regret_not_winner"":85}",survey-html-form,28,2.1.0,138734,558955ebfdf99b6bd06016c9,558955ebfdf99b6bd06016c9,696a97ad50e2fdc7466c7392,696ecb35041f7d88f187e355,2026-01-20T00:24:29Z,NA,NA,NA,20,30,NA,0,NA,NA,[],NA
NA,NA,NA,html-keyboard-response,29,2.1.0,139490,558955ebfdf99b6bd06016c9,558955ebfdf99b6bd06016c9,696a97ad50e2fdc7466c7392,696ecb35041f7d88f187e355,2026-01-20T00:24:29Z,NA,NA,NA,20,20,0.9299999999999998,0,1,0,[],NA
2878,"
            <div style=""max-width:720px; margin:0 auto;"">
              <img
                src=""img/gain.png""
                alt=""Win""
                style=""
                  display:block;
                  margin: 0 auto 14px;
                  width: min(280px, 60vw);
                  border-radius: 14px;
                  box-shadow: 0 10px 24px rgba(0,0,0,0.12);
                ""
              />

              <h2 style=""color:#1a7f37; margin-bottom:6px;"">
                You WON!
              </h2>

              <p>Winning number: <b>20</b></p>

              <div id=""balance-display"">
                Balance: $0.93
              </div>

              <p style=""margin-top:14px;"">Press any key to continue.</p>
            </div>
",NA,html-keyboard-response,30,2.1.0,142370,558955ebfdf99b6bd06016c9,558955ebfdf99b6bd06016c9,696a97ad50e2fdc7466c7392,696ecb35041f7d88f187e355,2026-01-20T00:24:29Z,NA,NA,NA,NA,NA,NA,NA,NA,NA,NA,NA
2269,NA,"{""regret_chosen"":0}",survey-html-form,31,2.1.0,144640,558955ebfdf99b6bd06016c9,558955ebfdf99b6bd06016c9,696a97ad50e2fdc7466c7392,696ecb35041f7d88f187e355,2026-01-20T00:24:29Z,NA,NA,NA,20,20,NA,0,NA,NA,[],NA
NA,NA,NA,html-keyboard-response,32,2.1.0,146526,558955ebfdf99b6bd06016c9,558955ebfdf99b6bd06016c9,696a97ad50e2fdc7466c7392,696ecb35041f7d88f187e355,2026-01-20T00:24:29Z,NA,NA,NA,11,30,0.9199999999999998,1,0,3,"[20,27,12]",nonhot_win_number
1028,"
            <div style=""max-width:720px; margin:0 auto;"">
              <img
                src=""img/loss.png""
                alt=""Loss""
                style=""
                  display:block;
                  margin: 0 auto 14px;
                  width: min(280px, 60vw);
                  border-radius: 14px;
                  box-shadow: 0 10px 24px rgba(0,0,0,0.12);
                ""
              />

              <h2 style=""color:#b3122a; margin-bottom:6px;"">
                You lost.
              </h2>

              <p>Winning number: <b>30</b></p>

              <div id=""balance-display"">
                Balance: $0.92
              </div>

              <p style=""margin-top:14px;"">Press any key to continue.</p>
            </div>
",NA,html-keyboard-response,33,2.1.0,147555,558955ebfdf99b6bd06016c9,558955ebfdf99b6bd06016c9,696a97ad50e2fdc7466c7392,696ecb35041f7d88f187e355,2026-01-20T00:24:29Z,NA,NA,NA,NA,NA,NA,NA,NA,NA,NA,NA
4733,NA,"{""regret_chosen"":12,""regret_not_winner"":83,""regret_not_hot_probe"":0}",survey-html-form,34,2.1.0,152291,558955ebfdf99b6bd06016c9,558955ebfdf99b6bd06016c9,696a97ad50e2fdc7466c7392,696ecb35041f7d88f187e355,2026-01-20T00:24:29Z,NA,NA,NA,11,30,NA,1,NA,NA,"[20,27,12]",nonhot_win_number
NA,NA,NA,html-keyboard-response,35,2.1.0,153052,558955ebfdf99b6bd06016c9,558955ebfdf99b6bd06016c9,696a97ad50e2fdc7466c7392,696ecb35041f7d88f187e355,2026-01-20T00:24:29Z,NA,NA,NA,11,6,0.9099999999999998,1,0,2,"[9,7]",nonhot_win_number
946,"
            <div style=""max-width:720px; margin:0 auto;"">
              <img
                src=""img/loss.png""
                alt=""Loss""
                style=""
                  display:block;
                  margin: 0 auto 14px;
                  width: min(280px, 60vw);
                  border-radius: 14px;
                  box-shadow: 0 10px 24px rgba(0,0,0,0.12);
                ""
              />

              <h2 style=""color:#b3122a; margin-bottom:6px;"">
                You lost.
              </h2>

              <p>Winning number: <b>6</b></p>

              <div id=""balance-display"">
                Balance: $0.91
              </div>

              <p style=""margin-top:14px;"">Press any key to continue.</p>
            </div>
",NA,html-keyboard-response,36,2.1.0,154000,558955ebfdf99b6bd06016c9,558955ebfdf99b6bd06016c9,696a97ad50e2fdc7466c7392,696ecb35041f7d88f187e355,2026-01-20T00:24:29Z,NA,NA,NA,NA,NA,NA,NA,NA,NA,NA,NA
5047,NA,"{""regret_chosen"":13,""regret_not_winner"":82,""regret_not_hot_probe"":0}",survey-html-form,37,2.1.0,159049,558955ebfdf99b6bd06016c9,558955ebfdf99b6bd06016c9,696a97ad50e2fdc7466c7392,696ecb35041f7d88f187e355,2026-01-20T00:24:29Z,NA,NA,NA,11,6,NA,1,NA,NA,"[9,7]",nonhot_win_number
NA,NA,NA,html-keyboard-response,38,2.1.0,159868,558955ebfdf99b6bd06016c9,558955ebfdf99b6bd06016c9,696a97ad50e2fdc7466c7392,696ecb35041f7d88f187e355,2026-01-20T00:24:29Z,NA,NA,NA,11,10,0.8999999999999998,0,0,0,[],NA
577,"
            <div style=""max-width:720px; margin:0 auto;"">
              <img
                src=""img/loss.png""
                alt=""Loss""
                style=""
                  display:block;
                  margin: 0 auto 14px;
                  width: min(280px, 60vw);
                  border-radius: 14px;
                  box-shadow: 0 10px 24px rgba(0,0,0,0.12);
                ""
              />

              <h2 style=""color:#b3122a; margin-bottom:6px;"">
                You lost.
              </h2>

              <p>Winning number: <b>10</b></p>

              <div id=""balance-display"">
                Balance: $0.90
              </div>

              <p style=""margin-top:14px;"">Press any key to continue.</p>
            </div>
",NA,html-keyboard-response,39,2.1.0,160448,558955ebfdf99b6bd06016c9,558955ebfdf99b6bd06016c9,696a97ad50e2fdc7466c7392,696ecb35041f7d88f187e355,2026-01-20T00:24:29Z,NA,NA,NA,NA,NA,NA,NA,NA,NA,NA,NA
3413,NA,"{""regret_chosen"":10,""regret_not_winner"":84}",survey-html-form,40,2.1.0,163864,558955ebfdf99b6bd06016c9,558955ebfdf99b6bd06016c9,696a97ad50e2fdc7466c7392,696ecb35041f7d88f187e355,2026-01-20T00:24:29Z,NA,NA,NA,11,10,NA,0,NA,NA,[],NA
NA,NA,NA,html-keyboard-response,41,2.1.0,164660,558955ebfdf99b6bd06016c9,558955ebfdf99b6bd06016c9,696a97ad50e2fdc7466c7392,696ecb35041f7d88f187e355,2026-01-20T00:24:29Z,NA,NA,NA,11,2,0.8899999999999998,1,0,3,"[1,21,2]",hot_win_number
614,"
            <div style=""max-width:720px; margin:0 auto;"">
              <img
                src=""img/loss.png""
                alt=""Loss""
                style=""
                  display:block;
                  margin: 0 auto 14px;
                  width: min(280px, 60vw);
                  border-radius: 14px;
                  box-shadow: 0 10px 24px rgba(0,0,0,0.12);
                ""
              />

              <h2 style=""color:#b3122a; margin-bottom:6px;"">
                You lost.
              </h2>

              <p>Winning number: <b>2</b></p>

              <div id=""balance-display"">
                Balance: $0.89
              </div>

              <p style=""margin-top:14px;"">Press any key to continue.</p>
            </div>
",NA,html-keyboard-response,42,2.1.0,165276,558955ebfdf99b6bd06016c9,558955ebfdf99b6bd06016c9,696a97ad50e2fdc7466c7392,696ecb35041f7d88f187e355,2026-01-20T00:24:29Z,NA,NA,NA,NA,NA,NA,NA,NA,NA,NA,NA
6936,NA,"{""regret_chosen"":9,""regret_not_winner"":86,""regret_not_hot_probe"":0}",survey-html-form,43,2.1.0,172213,558955ebfdf99b6bd06016c9,558955ebfdf99b6bd06016c9,696a97ad50e2fdc7466c7392,696ecb35041f7d88f187e355,2026-01-20T00:24:29Z,NA,NA,NA,11,2,NA,1,NA,NA,"[1,21,2]",hot_win_number
NA,NA,NA,html-keyboard-response,44,2.1.0,173114,558955ebfdf99b6bd06016c9,558955ebfdf99b6bd06016c9,696a97ad50e2fdc7466c7392,696ecb35041f7d88f187e355,2026-01-20T00:24:29Z,NA,NA,NA,11,3,0.8799999999999998,1,0,2,"[3,2]",hot_win_number
643,"
            <div style=""max-width:720px; margin:0 auto;"">
              <img
                src=""img/loss.png""
                alt=""Loss""
                style=""
                  display:block;
                  margin: 0 auto 14px;
                  width: min(280px, 60vw);
                  border-radius: 14px;
                  box-shadow: 0 10px 24px rgba(0,0,0,0.12);
                ""
              />

              <h2 style=""color:#b3122a; margin-bottom:6px;"">
                You lost.
              </h2>

              <p>Winning number: <b>3</b></p>

              <div id=""balance-display"">
                Balance: $0.88
              </div>

              <p style=""margin-top:14px;"">Press any key to continue.</p>
            </div>
",NA,html-keyboard-response,45,2.1.0,173760,558955ebfdf99b6bd06016c9,558955ebfdf99b6bd06016c9,696a97ad50e2fdc7466c7392,696ecb35041f7d88f187e355,2026-01-20T00:24:29Z,NA,NA,NA,NA,NA,NA,NA,NA,NA,NA,NA
5274,NA,"{""regret_chosen"":9,""regret_not_winner"":83,""regret_not_hot_probe"":0}",survey-html-form,46,2.1.0,179036,558955ebfdf99b6bd06016c9,558955ebfdf99b6bd06016c9,696a97ad50e2fdc7466c7392,696ecb35041f7d88f187e355,2026-01-20T00:24:29Z,NA,NA,NA,11,3,NA,1,NA,NA,"[3,2]",hot_win_number
NA,NA,NA,html-keyboard-response,47,2.1.0,179739,558955ebfdf99b6bd06016c9,558955ebfdf99b6bd06016c9,696a97ad50e2fdc7466c7392,696ecb35041f7d88f187e355,2026-01-20T00:24:29Z,NA,NA,NA,11,35,0.8699999999999998,1,0,16,"[31,33,1,4,24,28,9,10,34,12,27,20,21,15,35,19]",hot_win_number
817,"
            <div style=""max-width:720px; margin:0 auto;"">
              <img
                src=""img/loss.png""
                alt=""Loss""
                style=""
                  display:block;
                  margin: 0 auto 14px;
                  width: min(280px, 60vw);
                  border-radius: 14px;
                  box-shadow: 0 10px 24px rgba(0,0,0,0.12);
                ""
              />

              <h2 style=""color:#b3122a; margin-bottom:6px;"">
                You lost.
              </h2>

              <p>Winning number: <b>35</b></p>

              <div id=""balance-display"">
                Balance: $0.87
              </div>

              <p style=""margin-top:14px;"">Press any key to continue.</p>
            </div>
",NA,html-keyboard-response,48,2.1.0,180557,558955ebfdf99b6bd06016c9,558955ebfdf99b6bd06016c9,696a97ad50e2fdc7466c7392,696ecb35041f7d88f187e355,2026-01-20T00:24:29Z,NA,NA,NA,NA,NA,NA,NA,NA,NA,NA,NA
6073,NA,"{""regret_chosen"":12,""regret_not_winner"":88,""regret_not_hot_probe"":0}",survey-html-form,49,2.1.0,186631,558955ebfdf99b6bd06016c9,558955ebfdf99b6bd06016c9,696a97ad50e2fdc7466c7392,696ecb35041f7d88f187e355,2026-01-20T00:24:29Z,NA,NA,NA,11,35,NA,1,NA,NA,"[31,33,1,4,24,28,9,10,34,12,27,20,21,15,35,19]",hot_win_number
NA,NA,NA,html-keyboard-response,50,2.1.0,187573,558955ebfdf99b6bd06016c9,558955ebfdf99b6bd06016c9,696a97ad50e2fdc7466c7392,696ecb35041f7d88f187e355,2026-01-20T00:24:29Z,NA,NA,NA,11,33,0.8599999999999998,0,0,0,[],NA
607,"
            <div style=""max-width:720px; margin:0 auto;"">
              <img
                src=""img/loss.png""
                alt=""Loss""
                style=""
                  display:block;
                  margin: 0 auto 14px;
                  width: min(280px, 60vw);
                  border-radius: 14px;
                  box-shadow: 0 10px 24px rgba(0,0,0,0.12);
                ""
              />

              <h2 style=""color:#b3122a; margin-bottom:6px;"">
                You lost.
              </h2>

              <p>Winning number: <b>33</b></p>

              <div id=""balance-display"">
                Balance: $0.86
              </div>

              <p style=""margin-top:14px;"">Press any key to continue.</p>
            </div>
",NA,html-keyboard-response,51,2.1.0,188182,558955ebfdf99b6bd06016c9,558955ebfdf99b6bd06016c9,696a97ad50e2fdc7466c7392,696ecb35041f7d88f187e355,2026-01-20T00:24:29Z,NA,NA,NA,NA,NA,NA,NA,NA,NA,NA,NA
3784,NA,"{""regret_chosen"":11,""regret_not_winner"":80}",survey-html-form,52,2.1.0,191967,558955ebfdf99b6bd06016c9,558955ebfdf99b6bd06016c9,696a97ad50e2fdc7466c7392,696ecb35041f7d88f187e355,2026-01-20T00:24:29Z,NA,NA,NA,11,33,NA,0,NA,NA,[],NA
NA,NA,NA,html-keyboard-response,53,2.1.0,192911,558955ebfdf99b6bd06016c9,558955ebfdf99b6bd06016c9,696a97ad50e2fdc7466c7392,696ecb35041f7d88f187e355,2026-01-20T00:24:29Z,NA,NA,NA,11,9,0.8499999999999998,0,0,0,[],NA
661,"
            <div style=""max-width:720px; margin:0 auto;"">
              <img
                src=""img/loss.png""
                alt=""Loss""
                style=""
                  display:block;
                  margin: 0 auto 14px;
                  width: min(280px, 60vw);
                  border-radius: 14px;
                  box-shadow: 0 10px 24px rgba(0,0,0,0.12);
                ""
              />

              <h2 style=""color:#b3122a; margin-bottom:6px;"">
                You lost.
              </h2>

              <p>Winning number: <b>9</b></p>

              <div id=""balance-display"">
                Balance: $0.85
              </div>

              <p style=""margin-top:14px;"">Press any key to continue.</p>
            </div>
",NA,html-keyboard-response,54,2.1.0,193574,558955ebfdf99b6bd06016c9,558955ebfdf99b6bd06016c9,696a97ad50e2fdc7466c7392,696ecb35041f7d88f187e355,2026-01-20T00:24:29Z,NA,NA,NA,NA,NA,NA,NA,NA,NA,NA,NA
4235,NA,"{""regret_chosen"":17,""regret_not_winner"":80}",survey-html-form,55,2.1.0,197810,558955ebfdf99b6bd06016c9,558955ebfdf99b6bd06016c9,696a97ad50e2fdc7466c7392,696ecb35041f7d88f187e355,2026-01-20T00:24:29Z,NA,NA,NA,11,9,NA,0,NA,NA,[],NA
NA,NA,NA,html-keyboard-response,56,2.1.0,198745,558955ebfdf99b6bd06016c9,558955ebfdf99b6bd06016c9,696a97ad50e2fdc7466c7392,696ecb35041f7d88f187e355,2026-01-20T00:24:29Z,NA,NA,NA,11,11,1.1999999999999995,0,1,0,[],NA
1365,"
            <div style=""max-width:720px; margin:0 auto;"">
              <img
                src=""img/gain.png""
                alt=""Win""
                style=""
                  display:block;
                  margin: 0 auto 14px;
                  width: min(280px, 60vw);
                  border-radius: 14px;
                  box-shadow: 0 10px 24px rgba(0,0,0,0.12);
                ""
              />

              <h2 style=""color:#1a7f37; margin-bottom:6px;"">
                You WON!
              </h2>

              <p>Winning number: <b>11</b></p>

              <div id=""balance-display"">
                Balance: $1.20
              </div>

              <p style=""margin-top:14px;"">Press any key to continue.</p>
            </div>
",NA,html-keyboard-response,57,2.1.0,200112,558955ebfdf99b6bd06016c9,558955ebfdf99b6bd06016c9,696a97ad50e2fdc7466c7392,696ecb35041f7d88f187e355,2026-01-20T00:24:29Z,NA,NA,NA,NA,NA,NA,NA,NA,NA,NA,NA
2549,NA,"{""regret_chosen"":0}",survey-html-form,58,2.1.0,202662,558955ebfdf99b6bd06016c9,558955ebfdf99b6bd06016c9,696a97ad50e2fdc7466c7392,696ecb35041f7d88f187e355,2026-01-20T00:24:29Z,NA,NA,NA,11,11,NA,0,NA,NA,[],NA
NA,NA,NA,html-keyboard-response,59,2.1.0,203350,558955ebfdf99b6bd06016c9,558955ebfdf99b6bd06016c9,696a97ad50e2fdc7466c7392,696ecb35041f7d88f187e355,2026-01-20T00:24:29Z,NA,NA,NA,1,6,1.1899999999999995,0,0,0,[],NA
640,"
            <div style=""max-width:720px; margin:0 auto;"">
              <img
                src=""img/loss.png""
                alt=""Loss""
                style=""
                  display:block;
                  margin: 0 auto 14px;
                  width: min(280px, 60vw);
                  border-radius: 14px;
                  box-shadow: 0 10px 24px rgba(0,0,0,0.12);
                ""
              />

              <h2 style=""color:#b3122a; margin-bottom:6px;"">
                You lost.
              </h2>

              <p>Winning number: <b>6</b></p>

              <div id=""balance-display"">
                Balance: $1.19
              </div>

              <p style=""margin-top:14px;"">Press any key to continue.</p>
            </div>
",NA,html-keyboard-response,60,2.1.0,203992,558955ebfdf99b6bd06016c9,558955ebfdf99b6bd06016c9,696a97ad50e2fdc7466c7392,696ecb35041f7d88f187e355,2026-01-20T00:24:29Z,NA,NA,NA,NA,NA,NA,NA,NA,NA,NA,NA
3057,NA,"{""regret_chosen"":8,""regret_not_winner"":81}",survey-html-form,61,2.1.0,207049,558955ebfdf99b6bd06016c9,558955ebfdf99b6bd06016c9,696a97ad50e2fdc7466c7392,696ecb35041f7d88f187e355,2026-01-20T00:24:29Z,NA,NA,NA,1,6,NA,0,NA,NA,[],NA
NA,NA,NA,html-keyboard-response,62,2.1.0,210830,558955ebfdf99b6bd06016c9,558955ebfdf99b6bd06016c9,696a97ad50e2fdc7466c7392,696ecb35041f7d88f187e355,2026-01-20T00:24:29Z,NA,NA,NA,1,28,1.1799999999999995,1,0,16,"[27,26,36,6,17,35,5,20,24,23,33,22,8,31,18,32]",nonhot_win_number
664,"
            <div style=""max-width:720px; margin:0 auto;"">
              <img
                src=""img/loss.png""
                alt=""Loss""
                style=""
                  display:block;
                  margin: 0 auto 14px;
                  width: min(280px, 60vw);
                  border-radius: 14px;
                  box-shadow: 0 10px 24px rgba(0,0,0,0.12);
                ""
              />

              <h2 style=""color:#b3122a; margin-bottom:6px;"">
                You lost.
              </h2>

              <p>Winning number: <b>28</b></p>

              <div id=""balance-display"">
                Balance: $1.18
              </div>

              <p style=""margin-top:14px;"">Press any key to continue.</p>
            </div>
",NA,html-keyboard-response,63,2.1.0,211495,558955ebfdf99b6bd06016c9,558955ebfdf99b6bd06016c9,696a97ad50e2fdc7466c7392,696ecb35041f7d88f187e355,2026-01-20T00:24:29Z,NA,NA,NA,NA,NA,NA,NA,NA,NA,NA,NA
5259,NA,"{""regret_chosen"":14,""regret_not_winner"":80,""regret_not_hot_probe"":0}",survey-html-form,64,2.1.0,216755,558955ebfdf99b6bd06016c9,558955ebfdf99b6bd06016c9,696a97ad50e2fdc7466c7392,696ecb35041f7d88f187e355,2026-01-20T00:24:29Z,NA,NA,NA,1,28,NA,1,NA,NA,"[27,26,36,6,17,35,5,20,24,23,33,22,8,31,18,32]",nonhot_win_number
NA,NA,NA,html-keyboard-response,65,2.1.0,217518,558955ebfdf99b6bd06016c9,558955ebfdf99b6bd06016c9,696a97ad50e2fdc7466c7392,696ecb35041f7d88f187e355,2026-01-20T00:24:29Z,NA,NA,NA,1,34,1.1699999999999997,0,0,0,[],NA
679,"
            <div style=""max-width:720px; margin:0 auto;"">
              <img
                src=""img/loss.png""
                alt=""Loss""
                style=""
                  display:block;
                  margin: 0 auto 14px;
                  width: min(280px, 60vw);
                  border-radius: 14px;
                  box-shadow: 0 10px 24px rgba(0,0,0,0.12);
                ""
              />

              <h2 style=""color:#b3122a; margin-bottom:6px;"">
                You lost.
              </h2>

              <p>Winning number: <b>34</b></p>

              <div id=""balance-display"">
                Balance: $1.17
              </div>

              <p style=""margin-top:14px;"">Press any key to continue.</p>
            </div>
",NA,html-keyboard-response,66,2.1.0,218198,558955ebfdf99b6bd06016c9,558955ebfdf99b6bd06016c9,696a97ad50e2fdc7466c7392,696ecb35041f7d88f187e355,2026-01-20T00:24:29Z,NA,NA,NA,NA,NA,NA,NA,NA,NA,NA,NA
5365,NA,"{""regret_chosen"":13,""regret_not_winner"":81}",survey-html-form,67,2.1.0,223565,558955ebfdf99b6bd06016c9,558955ebfdf99b6bd06016c9,696a97ad50e2fdc7466c7392,696ecb35041f7d88f187e355,2026-01-20T00:24:29Z,NA,NA,NA,1,34,NA,0,NA,NA,[],NA
NA,NA,NA,html-keyboard-response,68,2.1.0,225229,558955ebfdf99b6bd06016c9,558955ebfdf99b6bd06016c9,696a97ad50e2fdc7466c7392,696ecb35041f7d88f187e355,2026-01-20T00:24:29Z,NA,NA,NA,14,32,1.1599999999999997,1,0,1,[14],nonhot_win_number
686,"
            <div style=""max-width:720px; margin:0 auto;"">
              <img
                src=""img/loss.png""
                alt=""Loss""
                style=""
                  display:block;
                  margin: 0 auto 14px;
                  width: min(280px, 60vw);
                  border-radius: 14px;
                  box-shadow: 0 10px 24px rgba(0,0,0,0.12);
                ""
              />

              <h2 style=""color:#b3122a; margin-bottom:6px;"">
                You lost.
              </h2>

              <p>Winning number: <b>32</b></p>

              <div id=""balance-display"">
                Balance: $1.16
              </div>

              <p style=""margin-top:14px;"">Press any key to continue.</p>
            </div>
",NA,html-keyboard-response,69,2.1.0,225917,558955ebfdf99b6bd06016c9,558955ebfdf99b6bd06016c9,696a97ad50e2fdc7466c7392,696ecb35041f7d88f187e355,2026-01-20T00:24:29Z,NA,NA,NA,NA,NA,NA,NA,NA,NA,NA,NA
4549,NA,"{""regret_chosen"":17,""regret_not_winner"":79}",survey-html-form,70,2.1.0,230468,558955ebfdf99b6bd06016c9,558955ebfdf99b6bd06016c9,696a97ad50e2fdc7466c7392,696ecb35041f7d88f187e355,2026-01-20T00:24:29Z,NA,NA,NA,14,32,NA,1,NA,NA,[14],nonhot_win_number
NA,NA,NA,html-keyboard-response,71,2.1.0,231267,558955ebfdf99b6bd06016c9,558955ebfdf99b6bd06016c9,696a97ad50e2fdc7466c7392,696ecb35041f7d88f187e355,2026-01-20T00:24:29Z,NA,NA,NA,1,8,1.1499999999999997,1,0,1,[21],nonhot_win_number
1037,"
            <div style=""max-width:720px; margin:0 auto;"">
              <img
                src=""img/loss.png""
                alt=""Loss""
                style=""
                  display:block;
                  margin: 0 auto 14px;
                  width: min(280px, 60vw);
                  border-radius: 14px;
                  box-shadow: 0 10px 24px rgba(0,0,0,0.12);
                ""
              />

              <h2 style=""color:#b3122a; margin-bottom:6px;"">
                You lost.
              </h2>

              <p>Winning number: <b>8</b></p>

              <div id=""balance-display"">
                Balance: $1.15
              </div>

              <p style=""margin-top:14px;"">Press any key to continue.</p>
            </div>
",NA,html-keyboard-response,72,2.1.0,232307,558955ebfdf99b6bd06016c9,558955ebfdf99b6bd06016c9,696a97ad50e2fdc7466c7392,696ecb35041f7d88f187e355,2026-01-20T00:24:29Z,NA,NA,NA,NA,NA,NA,NA,NA,NA,NA,NA
5956,NA,"{""regret_chosen"":9,""regret_not_winner"":84,""regret_not_hot_probe"":0}",survey-html-form,73,2.1.0,238264,558955ebfdf99b6bd06016c9,558955ebfdf99b6bd06016c9,696a97ad50e2fdc7466c7392,696ecb35041f7d88f187e355,2026-01-20T00:24:29Z,NA,NA,NA,1,8,NA,1,NA,NA,[21],nonhot_win_number
NA,NA,NA,html-keyboard-response,74,2.1.0,239227,558955ebfdf99b6bd06016c9,558955ebfdf99b6bd06016c9,696a97ad50e2fdc7466c7392,696ecb35041f7d88f187e355,2026-01-20T00:24:29Z,NA,NA,NA,1,1,1.4999999999999996,0,1,0,[],NA
1469,"
            <div style=""max-width:720px; margin:0 auto;"">
              <img
                src=""img/gain.png""
                alt=""Win""
                style=""
                  display:block;
                  margin: 0 auto 14px;
                  width: min(280px, 60vw);
                  border-radius: 14px;
                  box-shadow: 0 10px 24px rgba(0,0,0,0.12);
                ""
              />

              <h2 style=""color:#1a7f37; margin-bottom:6px;"">
                You WON!
              </h2>

              <p>Winning number: <b>1</b></p>

              <div id=""balance-display"">
                Balance: $1.50
              </div>

              <p style=""margin-top:14px;"">Press any key to continue.</p>
            </div>
",NA,html-keyboard-response,75,2.1.0,240697,558955ebfdf99b6bd06016c9,558955ebfdf99b6bd06016c9,696a97ad50e2fdc7466c7392,696ecb35041f7d88f187e355,2026-01-20T00:24:29Z,NA,NA,NA,NA,NA,NA,NA,NA,NA,NA,NA
2310,NA,"{""regret_chosen"":0}",survey-html-form,76,2.1.0,243010,558955ebfdf99b6bd06016c9,558955ebfdf99b6bd06016c9,696a97ad50e2fdc7466c7392,696ecb35041f7d88f187e355,2026-01-20T00:24:29Z,NA,NA,NA,1,1,NA,0,NA,NA,[],NA
31547,NA,"{""feedback"":""I played without looking at the hot numbers and assumed true randomness."",""age"":35,""gamble_freq_12mo"":""Never"",""race"":""White"",""gender"":""Male"",""ethnicity"":""Non-Hispanic""}",survey-html-form,77,2.1.0,274560,558955ebfdf99b6bd06016c9,558955ebfdf99b6bd06016c9,696a97ad50e2fdc7466c7392,696ecb35041f7d88f187e355,2026-01-20T00:24:29Z,NA,NA,NA,NA,NA,NA,NA,NA,NA,NA,NA
36273,"<p><b>Consent Form</b></p> <div style=""text-align:left;background-color:lightblue; padding:20px; max-width:900px;""><p><b>Description:</b> Welcome! You are invited to participate in a research study in cognitive psychology. You will be asked to perform various tasks on a computer which may include: looking at images or videos, listening to sounds, reading scenarios, or playing games. You may be asked a number of different questions about your feelings and yourself. All information collected will remain confidential. </p> <p> <b>Risks and benefits:</b> Risks involved in this study are the same as those normally associated with using a computer (e.g., mild eye/arm strain). If you have any pre- existing conditions that might make reading and completing a computer-based survey strenuous for you, you should probably elect to not participate in this study. If at any time during the study you feel unable to participate because you are experiencing strain, you may end your participation without penalty. We cannot and do not guarantee or promise that you will receive any benefits from this study. Your decision whether or not to participate in this study will not affect your employment, medical care, and/or grades in school. </p><p><b>Time involvement:</b> Your participation in this experiment will take 5-10 minutes. </p><p><b> Payment:</b> You will receive compensation as indicated in the Prolific listing. </p><p><b>Subject's rights:</b> If you have read this notice and have decided to participate in this project, please understand your participation is voluntary and you have the right to withdraw your consent or discontinue participation at any time without penalty or loss of benefits to which you are otherwise entitled. You have the right to refuse to answer particular questions. Your individual privacy will be maintained in all published and written data resulting from the study. </p><p><b>Contact information:</b> If you have any questions, concerns or complaints about this research study, its procedures, or risks and benefits, you should ask the Protocol Director, (Kate Petrova, Email: kpetrova@stanford.edu). </p><p><b>Independent contact:</b> If you are not satisfied with how this study is being conducted, or if you have any concerns, complaints, or general questions about the research or your rights as a participant, please contact the Stanford Institutional Review Board (IRB) to speak to someone independent of the research team via email at irb2-manager@lists.stanford.edu, or via phone at (650) 723-2480 or toll free at 1-866-680-2906. You can also write to the Stanford IRB, Stanford University, 3000 El Camino Real, Five Palo Alto Square, 4th Floor, Palo Alto, CA 94306. </p><p>You may want to print a copy of this consent form to keep. By clicking the button below, you acknowledge that you have read the above information, that you are 18 years of age, or older and give your consent to participate in our internet-based study and consent for us to analyze the resulting data. </p> </div><p> Do you agree with the terms of the experiment as explained above? </p>",0,html-button-response,0,2.1.0,36274,558acd52fdf99b65685f03d9,558acd52fdf99b65685f03d9,696a97ad50e2fdc7466c7392,696fe06cb7837370615e5549,2026-01-20T20:15:44Z,NA,NA,NA,NA,NA,NA,NA,NA,NA,NA,NA
155263,NA,NA,instructions,1,2.1.0,191538,558acd52fdf99b65685f03d9,558acd52fdf99b65685f03d9,696a97ad50e2fdc7466c7392,696fe06cb7837370615e5549,2026-01-20T20:15:44Z,"[{""page_index"":0,""viewing_time"":6407},{""page_index"":1,""viewing_time"":10576},{""page_index"":2,""viewing_time"":1280},{""page_index"":1,""viewing_time"":2880},{""page_index"":2,""viewing_time"":25008},{""page_index"":3,""viewing_time"":8624},{""page_index"":4,""viewing_time"":8920},{""page_index"":3,""viewing_time"":1920},{""page_index"":4,""viewing_time"":22872},{""page_index"":5,""viewing_time"":16440},{""page_index"":6,""viewing_time"":4976},{""page_index"":7,""viewing_time"":2264},{""page_index"":6,""viewing_time"":960},{""page_index"":7,""viewing_time"":10976},{""page_index"":8,""viewing_time"":25376},{""page_index"":9,""viewing_time"":2641},{""page_index"":10,""viewing_time"":3144}]",NA,NA,NA,NA,NA,NA,NA,NA,NA,NA
35744,NA,"{""Q0"":""False"",""Q1"":""True"",""Q2"":""True"",""Q3"":""True"",""Q4"":""True""}",survey-multi-choice,2,2.1.0,227283,558acd52fdf99b65685f03d9,558acd52fdf99b65685f03d9,696a97ad50e2fdc7466c7392,696fe06cb7837370615e5549,2026-01-20T20:15:44Z,NA,"[0,1,2,3,4]",FALSE,NA,NA,NA,NA,NA,NA,NA,NA
4061,"
          <h3>Oh no!</h3>
          <p>You got one or more questions wrong.</p>
          <p>Please go back, review the instructions, and try the comprehension check again!</p>
",0,html-button-response,3,2.1.0,231345,558acd52fdf99b65685f03d9,558acd52fdf99b65685f03d9,696a97ad50e2fdc7466c7392,696fe06cb7837370615e5549,2026-01-20T20:15:44Z,NA,NA,NA,NA,NA,NA,NA,NA,NA,NA,NA
13352,NA,NA,instructions,4,2.1.0,244697,558acd52fdf99b65685f03d9,558acd52fdf99b65685f03d9,696a97ad50e2fdc7466c7392,696fe06cb7837370615e5549,2026-01-20T20:15:44Z,"[{""page_index"":0,""viewing_time"":1144},{""page_index"":1,""viewing_time"":352},{""page_index"":2,""viewing_time"":1288},{""page_index"":3,""viewing_time"":680},{""page_index"":4,""viewing_time"":696},{""page_index"":5,""viewing_time"":4800},{""page_index"":6,""viewing_time"":1152},{""page_index"":7,""viewing_time"":1280},{""page_index"":8,""viewing_time"":840},{""page_index"":9,""viewing_time"":584},{""page_index"":10,""viewing_time"":536}]",NA,NA,NA,NA,NA,NA,NA,NA,NA,NA
76440,NA,"{""Q0"":""False"",""Q1"":""True"",""Q2"":""False"",""Q3"":""True"",""Q4"":""True""}",survey-multi-choice,5,2.1.0,321139,558acd52fdf99b65685f03d9,558acd52fdf99b65685f03d9,696a97ad50e2fdc7466c7392,696fe06cb7837370615e5549,2026-01-20T20:15:44Z,NA,"[0,1,2,3,4]",TRUE,NA,NA,NA,NA,NA,NA,NA,NA
5119,"
        <h3>You are now ready to begin the game.</h3>
        <p>Remember, your goal is to earn as much money as you can.</p>
        <p><b>May the odds be in your favor!</b></p>
        <p>Press any key to start.</p>
",NA,html-keyboard-response,7,2.1.0,326258,558acd52fdf99b65685f03d9,558acd52fdf99b65685f03d9,696a97ad50e2fdc7466c7392,696fe06cb7837370615e5549,2026-01-20T20:15:44Z,NA,NA,NA,NA,NA,NA,NA,NA,NA,NA,NA
NA,NA,NA,html-keyboard-response,8,2.1.0,331538,558acd52fdf99b65685f03d9,558acd52fdf99b65685f03d9,696a97ad50e2fdc7466c7392,696fe06cb7837370615e5549,2026-01-20T20:15:44Z,NA,NA,NA,15,13,0.29,1,0,3,"[15,9,20]",nonhot_win_number
2487,"
            <div style=""max-width:720px; margin:0 auto;"">
              <img
                src=""img/loss.png""
                alt=""Loss""
                style=""
                  display:block;
                  margin: 0 auto 14px;
                  width: min(280px, 60vw);
                  border-radius: 14px;
                  box-shadow: 0 10px 24px rgba(0,0,0,0.12);
                ""
              />

              <h2 style=""color:#b3122a; margin-bottom:6px;"">
                You lost.
              </h2>

              <p>Winning number: <b>13</b></p>

              <div id=""balance-display"">
                Balance: $0.29
              </div>

              <p style=""margin-top:14px;"">Press any key to continue.</p>
            </div>
",NA,html-keyboard-response,9,2.1.0,334026,558acd52fdf99b65685f03d9,558acd52fdf99b65685f03d9,696a97ad50e2fdc7466c7392,696fe06cb7837370615e5549,2026-01-20T20:15:44Z,NA,NA,NA,NA,NA,NA,NA,NA,NA,NA,NA
38855,NA,"{""regret_chosen"":87,""regret_not_winner"":34,""regret_not_hot_probe"":81}",survey-html-form,10,2.1.0,372882,558acd52fdf99b65685f03d9,558acd52fdf99b65685f03d9,696a97ad50e2fdc7466c7392,696fe06cb7837370615e5549,2026-01-20T20:15:44Z,NA,NA,NA,15,13,NA,1,NA,NA,"[15,9,20]",nonhot_win_number
NA,NA,NA,html-keyboard-response,11,2.1.0,376842,558acd52fdf99b65685f03d9,558acd52fdf99b65685f03d9,696a97ad50e2fdc7466c7392,696fe06cb7837370615e5549,2026-01-20T20:15:44Z,NA,NA,NA,4,11,0.27999999999999997,1,0,1,[4],nonhot_win_number
4161,"
            <div style=""max-width:720px; margin:0 auto;"">
              <img
                src=""img/loss.png""
                alt=""Loss""
                style=""
                  display:block;
                  margin: 0 auto 14px;
                  width: min(280px, 60vw);
                  border-radius: 14px;
                  box-shadow: 0 10px 24px rgba(0,0,0,0.12);
                ""
              />

              <h2 style=""color:#b3122a; margin-bottom:6px;"">
                You lost.
              </h2>

              <p>Winning number: <b>11</b></p>

              <div id=""balance-display"">
                Balance: $0.28
              </div>

              <p style=""margin-top:14px;"">Press any key to continue.</p>
            </div>
",NA,html-keyboard-response,12,2.1.0,381003,558acd52fdf99b65685f03d9,558acd52fdf99b65685f03d9,696a97ad50e2fdc7466c7392,696fe06cb7837370615e5549,2026-01-20T20:15:44Z,NA,NA,NA,NA,NA,NA,NA,NA,NA,NA,NA
9654,NA,"{""regret_chosen"":100,""regret_not_winner"":100}",survey-html-form,13,2.1.0,390658,558acd52fdf99b65685f03d9,558acd52fdf99b65685f03d9,696a97ad50e2fdc7466c7392,696fe06cb7837370615e5549,2026-01-20T20:15:44Z,NA,NA,NA,4,11,NA,1,NA,NA,[4],nonhot_win_number
NA,NA,NA,html-keyboard-response,14,2.1.0,394226,558acd52fdf99b65685f03d9,558acd52fdf99b65685f03d9,696a97ad50e2fdc7466c7392,696fe06cb7837370615e5549,2026-01-20T20:15:44Z,NA,NA,NA,11,15,0.26999999999999996,0,0,0,[],NA
2104,"
            <div style=""max-width:720px; margin:0 auto;"">
              <img
                src=""img/loss.png""
                alt=""Loss""
                style=""
                  display:block;
                  margin: 0 auto 14px;
                  width: min(280px, 60vw);
                  border-radius: 14px;
                  box-shadow: 0 10px 24px rgba(0,0,0,0.12);
                ""
              />

              <h2 style=""color:#b3122a; margin-bottom:6px;"">
                You lost.
              </h2>

              <p>Winning number: <b>15</b></p>

              <div id=""balance-display"">
                Balance: $0.27
              </div>

              <p style=""margin-top:14px;"">Press any key to continue.</p>
            </div>
",NA,html-keyboard-response,15,2.1.0,396330,558acd52fdf99b65685f03d9,558acd52fdf99b65685f03d9,696a97ad50e2fdc7466c7392,696fe06cb7837370615e5549,2026-01-20T20:15:44Z,NA,NA,NA,NA,NA,NA,NA,NA,NA,NA,NA
8014,NA,"{""regret_chosen"":97,""regret_not_winner"":100}",survey-html-form,16,2.1.0,404346,558acd52fdf99b65685f03d9,558acd52fdf99b65685f03d9,696a97ad50e2fdc7466c7392,696fe06cb7837370615e5549,2026-01-20T20:15:44Z,NA,NA,NA,11,15,NA,0,NA,NA,[],NA
NA,NA,NA,html-keyboard-response,17,2.1.0,405682,558acd52fdf99b65685f03d9,558acd52fdf99b65685f03d9,696a97ad50e2fdc7466c7392,696fe06cb7837370615e5549,2026-01-20T20:15:44Z,NA,NA,NA,19,19,0.6199999999999999,0,1,0,[],NA
2464,"
            <div style=""max-width:720px; margin:0 auto;"">
              <img
                src=""img/gain.png""
                alt=""Win""
                style=""
                  display:block;
                  margin: 0 auto 14px;
                  width: min(280px, 60vw);
                  border-radius: 14px;
                  box-shadow: 0 10px 24px rgba(0,0,0,0.12);
                ""
              />

              <h2 style=""color:#1a7f37; margin-bottom:6px;"">
                You WON!
              </h2>

              <p>Winning number: <b>19</b></p>

              <div id=""balance-display"">
                Balance: $0.62
              </div>

              <p style=""margin-top:14px;"">Press any key to continue.</p>
            </div>
",NA,html-keyboard-response,18,2.1.0,408146,558acd52fdf99b65685f03d9,558acd52fdf99b65685f03d9,696a97ad50e2fdc7466c7392,696fe06cb7837370615e5549,2026-01-20T20:15:44Z,NA,NA,NA,NA,NA,NA,NA,NA,NA,NA,NA
10406,NA,"{""regret_chosen"":0}",survey-html-form,19,2.1.0,418554,558acd52fdf99b65685f03d9,558acd52fdf99b65685f03d9,696a97ad50e2fdc7466c7392,696fe06cb7837370615e5549,2026-01-20T20:15:44Z,NA,NA,NA,19,19,NA,0,NA,NA,[],NA
NA,NA,NA,html-keyboard-response,20,2.1.0,421578,558acd52fdf99b65685f03d9,558acd52fdf99b65685f03d9,696a97ad50e2fdc7466c7392,696fe06cb7837370615e5549,2026-01-20T20:15:44Z,NA,NA,NA,29,35,0.6099999999999999,1,0,2,"[27,35]",hot_win_number
2152,"
            <div style=""max-width:720px; margin:0 auto;"">
              <img
                src=""img/loss.png""
                alt=""Loss""
                style=""
                  display:block;
                  margin: 0 auto 14px;
                  width: min(280px, 60vw);
                  border-radius: 14px;
                  box-shadow: 0 10px 24px rgba(0,0,0,0.12);
                ""
              />

              <h2 style=""color:#b3122a; margin-bottom:6px;"">
                You lost.
              </h2>

              <p>Winning number: <b>35</b></p>

              <div id=""balance-display"">
                Balance: $0.61
              </div>

              <p style=""margin-top:14px;"">Press any key to continue.</p>
            </div>
",NA,html-keyboard-response,21,2.1.0,423731,558acd52fdf99b65685f03d9,558acd52fdf99b65685f03d9,696a97ad50e2fdc7466c7392,696fe06cb7837370615e5549,2026-01-20T20:15:44Z,NA,NA,NA,NA,NA,NA,NA,NA,NA,NA,NA
21870,NA,"{""regret_chosen"":10,""regret_not_winner"":18,""regret_not_hot_probe"":22}",survey-html-form,22,2.1.0,445602,558acd52fdf99b65685f03d9,558acd52fdf99b65685f03d9,696a97ad50e2fdc7466c7392,696fe06cb7837370615e5549,2026-01-20T20:15:44Z,NA,NA,NA,29,35,NA,1,NA,NA,"[27,35]",hot_win_number
NA,NA,NA,html-keyboard-response,23,2.1.0,447747,558acd52fdf99b65685f03d9,558acd52fdf99b65685f03d9,696a97ad50e2fdc7466c7392,696fe06cb7837370615e5549,2026-01-20T20:15:44Z,NA,NA,NA,1,18,0.5999999999999999,0,0,0,[],NA
1462,"
            <div style=""max-width:720px; margin:0 auto;"">
              <img
                src=""img/loss.png""
                alt=""Loss""
                style=""
                  display:block;
                  margin: 0 auto 14px;
                  width: min(280px, 60vw);
                  border-radius: 14px;
                  box-shadow: 0 10px 24px rgba(0,0,0,0.12);
                ""
              />

              <h2 style=""color:#b3122a; margin-bottom:6px;"">
                You lost.
              </h2>

              <p>Winning number: <b>18</b></p>

              <div id=""balance-display"">
                Balance: $0.60
              </div>

              <p style=""margin-top:14px;"">Press any key to continue.</p>
            </div>
",NA,html-keyboard-response,24,2.1.0,449210,558acd52fdf99b65685f03d9,558acd52fdf99b65685f03d9,696a97ad50e2fdc7466c7392,696fe06cb7837370615e5549,2026-01-20T20:15:44Z,NA,NA,NA,NA,NA,NA,NA,NA,NA,NA,NA
6256,NA,"{""regret_chosen"":19,""regret_not_winner"":24}",survey-html-form,25,2.1.0,455466,558acd52fdf99b65685f03d9,558acd52fdf99b65685f03d9,696a97ad50e2fdc7466c7392,696fe06cb7837370615e5549,2026-01-20T20:15:44Z,NA,NA,NA,1,18,NA,0,NA,NA,[],NA
NA,NA,NA,html-keyboard-response,26,2.1.0,457498,558acd52fdf99b65685f03d9,558acd52fdf99b65685f03d9,696a97ad50e2fdc7466c7392,696fe06cb7837370615e5549,2026-01-20T20:15:44Z,NA,NA,NA,32,10,0.5899999999999999,0,0,0,[],NA
2631,"
            <div style=""max-width:720px; margin:0 auto;"">
              <img
                src=""img/loss.png""
                alt=""Loss""
                style=""
                  display:block;
                  margin: 0 auto 14px;
                  width: min(280px, 60vw);
                  border-radius: 14px;
                  box-shadow: 0 10px 24px rgba(0,0,0,0.12);
                ""
              />

              <h2 style=""color:#b3122a; margin-bottom:6px;"">
                You lost.
              </h2>

              <p>Winning number: <b>10</b></p>

              <div id=""balance-display"">
                Balance: $0.59
              </div>

              <p style=""margin-top:14px;"">Press any key to continue.</p>
            </div>
",NA,html-keyboard-response,27,2.1.0,460130,558acd52fdf99b65685f03d9,558acd52fdf99b65685f03d9,696a97ad50e2fdc7466c7392,696fe06cb7837370615e5549,2026-01-20T20:15:44Z,NA,NA,NA,NA,NA,NA,NA,NA,NA,NA,NA
7439,NA,"{""regret_chosen"":17,""regret_not_winner"":52}",survey-html-form,28,2.1.0,467570,558acd52fdf99b65685f03d9,558acd52fdf99b65685f03d9,696a97ad50e2fdc7466c7392,696fe06cb7837370615e5549,2026-01-20T20:15:44Z,NA,NA,NA,32,10,NA,0,NA,NA,[],NA
NA,NA,NA,html-keyboard-response,29,2.1.0,472169,558acd52fdf99b65685f03d9,558acd52fdf99b65685f03d9,696a97ad50e2fdc7466c7392,696fe06cb7837370615e5549,2026-01-20T20:15:44Z,NA,NA,NA,24,23,0.5799999999999998,1,0,8,"[13,4,21,8,24,25,34,27]",nonhot_win_number
1721,"
            <div style=""max-width:720px; margin:0 auto;"">
              <img
                src=""img/loss.png""
                alt=""Loss""
                style=""
                  display:block;
                  margin: 0 auto 14px;
                  width: min(280px, 60vw);
                  border-radius: 14px;
                  box-shadow: 0 10px 24px rgba(0,0,0,0.12);
                ""
              />

              <h2 style=""color:#b3122a; margin-bottom:6px;"">
                You lost.
              </h2>

              <p>Winning number: <b>23</b></p>

              <div id=""balance-display"">
                Balance: $0.58
              </div>

              <p style=""margin-top:14px;"">Press any key to continue.</p>
            </div>
",NA,html-keyboard-response,30,2.1.0,473890,558acd52fdf99b65685f03d9,558acd52fdf99b65685f03d9,696a97ad50e2fdc7466c7392,696fe06cb7837370615e5549,2026-01-20T20:15:44Z,NA,NA,NA,NA,NA,NA,NA,NA,NA,NA,NA
13422,NA,"{""regret_chosen"":14,""regret_not_winner"":53,""regret_not_hot_probe"":13}",survey-html-form,31,2.1.0,487314,558acd52fdf99b65685f03d9,558acd52fdf99b65685f03d9,696a97ad50e2fdc7466c7392,696fe06cb7837370615e5549,2026-01-20T20:15:44Z,NA,NA,NA,24,23,NA,1,NA,NA,"[13,4,21,8,24,25,34,27]",nonhot_win_number
NA,NA,NA,html-keyboard-response,32,2.1.0,490937,558acd52fdf99b65685f03d9,558acd52fdf99b65685f03d9,696a97ad50e2fdc7466c7392,696fe06cb7837370615e5549,2026-01-20T20:15:44Z,NA,NA,NA,19,13,0.5699999999999998,0,0,0,[],NA
1513,"
            <div style=""max-width:720px; margin:0 auto;"">
              <img
                src=""img/loss.png""
                alt=""Loss""
                style=""
                  display:block;
                  margin: 0 auto 14px;
                  width: min(280px, 60vw);
                  border-radius: 14px;
                  box-shadow: 0 10px 24px rgba(0,0,0,0.12);
                ""
              />

              <h2 style=""color:#b3122a; margin-bottom:6px;"">
                You lost.
              </h2>

              <p>Winning number: <b>13</b></p>

              <div id=""balance-display"">
                Balance: $0.57
              </div>

              <p style=""margin-top:14px;"">Press any key to continue.</p>
            </div>
",NA,html-keyboard-response,33,2.1.0,492451,558acd52fdf99b65685f03d9,558acd52fdf99b65685f03d9,696a97ad50e2fdc7466c7392,696fe06cb7837370615e5549,2026-01-20T20:15:44Z,NA,NA,NA,NA,NA,NA,NA,NA,NA,NA,NA
9190,NA,"{""regret_chosen"":12,""regret_not_winner"":30}",survey-html-form,34,2.1.0,501642,558acd52fdf99b65685f03d9,558acd52fdf99b65685f03d9,696a97ad50e2fdc7466c7392,696fe06cb7837370615e5549,2026-01-20T20:15:44Z,NA,NA,NA,19,13,NA,0,NA,NA,[],NA
NA,NA,NA,html-keyboard-response,35,2.1.0,503242,558acd52fdf99b65685f03d9,558acd52fdf99b65685f03d9,696a97ad50e2fdc7466c7392,696fe06cb7837370615e5549,2026-01-20T20:15:44Z,NA,NA,NA,1,1,0.9199999999999998,0,1,0,[],NA
1536,"
            <div style=""max-width:720px; margin:0 auto;"">
              <img
                src=""img/gain.png""
                alt=""Win""
                style=""
                  display:block;
                  margin: 0 auto 14px;
                  width: min(280px, 60vw);
                  border-radius: 14px;
                  box-shadow: 0 10px 24px rgba(0,0,0,0.12);
                ""
              />

              <h2 style=""color:#1a7f37; margin-bottom:6px;"">
                You WON!
              </h2>

              <p>Winning number: <b>1</b></p>

              <div id=""balance-display"">
                Balance: $0.92
              </div>

              <p style=""margin-top:14px;"">Press any key to continue.</p>
            </div>
",NA,html-keyboard-response,36,2.1.0,504778,558acd52fdf99b65685f03d9,558acd52fdf99b65685f03d9,696a97ad50e2fdc7466c7392,696fe06cb7837370615e5549,2026-01-20T20:15:44Z,NA,NA,NA,NA,NA,NA,NA,NA,NA,NA,NA
6967,NA,"{""regret_chosen"":0}",survey-html-form,37,2.1.0,511746,558acd52fdf99b65685f03d9,558acd52fdf99b65685f03d9,696a97ad50e2fdc7466c7392,696fe06cb7837370615e5549,2026-01-20T20:15:44Z,NA,NA,NA,1,1,NA,0,NA,NA,[],NA
NA,NA,NA,html-keyboard-response,38,2.1.0,516826,558acd52fdf99b65685f03d9,558acd52fdf99b65685f03d9,696a97ad50e2fdc7466c7392,696fe06cb7837370615e5549,2026-01-20T20:15:44Z,NA,NA,NA,1,7,0.9099999999999998,1,0,2,"[29,16]",nonhot_win_number
1375,"
            <div style=""max-width:720px; margin:0 auto;"">
              <img
                src=""img/loss.png""
                alt=""Loss""
                style=""
                  display:block;
                  margin: 0 auto 14px;
                  width: min(280px, 60vw);
                  border-radius: 14px;
                  box-shadow: 0 10px 24px rgba(0,0,0,0.12);
                ""
              />

              <h2 style=""color:#b3122a; margin-bottom:6px;"">
                You lost.
              </h2>

              <p>Winning number: <b>7</b></p>

              <div id=""balance-display"">
                Balance: $0.91
              </div>

              <p style=""margin-top:14px;"">Press any key to continue.</p>
            </div>
",NA,html-keyboard-response,39,2.1.0,518202,558acd52fdf99b65685f03d9,558acd52fdf99b65685f03d9,696a97ad50e2fdc7466c7392,696fe06cb7837370615e5549,2026-01-20T20:15:44Z,NA,NA,NA,NA,NA,NA,NA,NA,NA,NA,NA
15743,NA,"{""regret_chosen"":17,""regret_not_winner"":32,""regret_not_hot_probe"":15}",survey-html-form,40,2.1.0,533946,558acd52fdf99b65685f03d9,558acd52fdf99b65685f03d9,696a97ad50e2fdc7466c7392,696fe06cb7837370615e5549,2026-01-20T20:15:44Z,NA,NA,NA,1,7,NA,1,NA,NA,"[29,16]",nonhot_win_number
NA,NA,NA,html-keyboard-response,41,2.1.0,537570,558acd52fdf99b65685f03d9,558acd52fdf99b65685f03d9,696a97ad50e2fdc7466c7392,696fe06cb7837370615e5549,2026-01-20T20:15:44Z,NA,NA,NA,14,5,0.8999999999999998,1,0,3,"[14,2,5]",hot_win_number
1264,"
            <div style=""max-width:720px; margin:0 auto;"">
              <img
                src=""img/loss.png""
                alt=""Loss""
                style=""
                  display:block;
                  margin: 0 auto 14px;
                  width: min(280px, 60vw);
                  border-radius: 14px;
                  box-shadow: 0 10px 24px rgba(0,0,0,0.12);
                ""
              />

              <h2 style=""color:#b3122a; margin-bottom:6px;"">
                You lost.
              </h2>

              <p>Winning number: <b>5</b></p>

              <div id=""balance-display"">
                Balance: $0.90
              </div>

              <p style=""margin-top:14px;"">Press any key to continue.</p>
            </div>
",NA,html-keyboard-response,42,2.1.0,538835,558acd52fdf99b65685f03d9,558acd52fdf99b65685f03d9,696a97ad50e2fdc7466c7392,696fe06cb7837370615e5549,2026-01-20T20:15:44Z,NA,NA,NA,NA,NA,NA,NA,NA,NA,NA,NA
12822,NA,"{""regret_chosen"":9,""regret_not_winner"":36,""regret_not_hot_probe"":12}",survey-html-form,43,2.1.0,551658,558acd52fdf99b65685f03d9,558acd52fdf99b65685f03d9,696a97ad50e2fdc7466c7392,696fe06cb7837370615e5549,2026-01-20T20:15:44Z,NA,NA,NA,14,5,NA,1,NA,NA,"[14,2,5]",hot_win_number
NA,NA,NA,html-keyboard-response,44,2.1.0,553921,558acd52fdf99b65685f03d9,558acd52fdf99b65685f03d9,696a97ad50e2fdc7466c7392,696fe06cb7837370615e5549,2026-01-20T20:15:44Z,NA,NA,NA,15,17,0.8899999999999998,0,0,0,[],NA
1257,"
            <div style=""max-width:720px; margin:0 auto;"">
              <img
                src=""img/loss.png""
                alt=""Loss""
                style=""
                  display:block;
                  margin: 0 auto 14px;
                  width: min(280px, 60vw);
                  border-radius: 14px;
                  box-shadow: 0 10px 24px rgba(0,0,0,0.12);
                ""
              />

              <h2 style=""color:#b3122a; margin-bottom:6px;"">
                You lost.
              </h2>

              <p>Winning number: <b>17</b></p>

              <div id=""balance-display"">
                Balance: $0.89
              </div>

              <p style=""margin-top:14px;"">Press any key to continue.</p>
            </div>
",NA,html-keyboard-response,45,2.1.0,555179,558acd52fdf99b65685f03d9,558acd52fdf99b65685f03d9,696a97ad50e2fdc7466c7392,696fe06cb7837370615e5549,2026-01-20T20:15:44Z,NA,NA,NA,NA,NA,NA,NA,NA,NA,NA,NA
6382,NA,"{""regret_chosen"":7,""regret_not_winner"":52}",survey-html-form,46,2.1.0,561562,558acd52fdf99b65685f03d9,558acd52fdf99b65685f03d9,696a97ad50e2fdc7466c7392,696fe06cb7837370615e5549,2026-01-20T20:15:44Z,NA,NA,NA,15,17,NA,0,NA,NA,[],NA
NA,NA,NA,html-keyboard-response,47,2.1.0,563081,558acd52fdf99b65685f03d9,558acd52fdf99b65685f03d9,696a97ad50e2fdc7466c7392,696fe06cb7837370615e5549,2026-01-20T20:15:44Z,NA,NA,NA,9,23,0.8799999999999998,0,0,0,[],NA
2144,"
            <div style=""max-width:720px; margin:0 auto;"">
              <img
                src=""img/loss.png""
                alt=""Loss""
                style=""
                  display:block;
                  margin: 0 auto 14px;
                  width: min(280px, 60vw);
                  border-radius: 14px;
                  box-shadow: 0 10px 24px rgba(0,0,0,0.12);
                ""
              />

              <h2 style=""color:#b3122a; margin-bottom:6px;"">
                You lost.
              </h2>

              <p>Winning number: <b>23</b></p>

              <div id=""balance-display"">
                Balance: $0.88
              </div>

              <p style=""margin-top:14px;"">Press any key to continue.</p>
            </div>
",NA,html-keyboard-response,48,2.1.0,565226,558acd52fdf99b65685f03d9,558acd52fdf99b65685f03d9,696a97ad50e2fdc7466c7392,696fe06cb7837370615e5549,2026-01-20T20:15:44Z,NA,NA,NA,NA,NA,NA,NA,NA,NA,NA,NA
6263,NA,"{""regret_chosen"":15,""regret_not_winner"":24}",survey-html-form,49,2.1.0,571490,558acd52fdf99b65685f03d9,558acd52fdf99b65685f03d9,696a97ad50e2fdc7466c7392,696fe06cb7837370615e5549,2026-01-20T20:15:44Z,NA,NA,NA,9,23,NA,0,NA,NA,[],NA
NA,NA,NA,html-keyboard-response,50,2.1.0,575073,558acd52fdf99b65685f03d9,558acd52fdf99b65685f03d9,696a97ad50e2fdc7466c7392,696fe06cb7837370615e5549,2026-01-20T20:15:44Z,NA,NA,NA,36,13,0.8699999999999998,1,0,1,[36],nonhot_win_number
1425,"
            <div style=""max-width:720px; margin:0 auto;"">
              <img
                src=""img/loss.png""
                alt=""Loss""
                style=""
                  display:block;
                  margin: 0 auto 14px;
                  width: min(280px, 60vw);
                  border-radius: 14px;
                  box-shadow: 0 10px 24px rgba(0,0,0,0.12);
                ""
              />

              <h2 style=""color:#b3122a; margin-bottom:6px;"">
                You lost.
              </h2>

              <p>Winning number: <b>13</b></p>

              <div id=""balance-display"">
                Balance: $0.87
              </div>

              <p style=""margin-top:14px;"">Press any key to continue.</p>
            </div>
",NA,html-keyboard-response,51,2.1.0,576499,558acd52fdf99b65685f03d9,558acd52fdf99b65685f03d9,696a97ad50e2fdc7466c7392,696fe06cb7837370615e5549,2026-01-20T20:15:44Z,NA,NA,NA,NA,NA,NA,NA,NA,NA,NA,NA
7174,NA,"{""regret_chosen"":16,""regret_not_winner"":49}",survey-html-form,52,2.1.0,583674,558acd52fdf99b65685f03d9,558acd52fdf99b65685f03d9,696a97ad50e2fdc7466c7392,696fe06cb7837370615e5549,2026-01-20T20:15:44Z,NA,NA,NA,36,13,NA,1,NA,NA,[36],nonhot_win_number
NA,NA,NA,html-keyboard-response,53,2.1.0,587170,558acd52fdf99b65685f03d9,558acd52fdf99b65685f03d9,696a97ad50e2fdc7466c7392,696fe06cb7837370615e5549,2026-01-20T20:15:44Z,NA,NA,NA,14,3,0.8599999999999998,1,0,8,"[9,10,3,34,2,23,6,26]",hot_win_number
1184,"
            <div style=""max-width:720px; margin:0 auto;"">
              <img
                src=""img/loss.png""
                alt=""Loss""
                style=""
                  display:block;
                  margin: 0 auto 14px;
                  width: min(280px, 60vw);
                  border-radius: 14px;
                  box-shadow: 0 10px 24px rgba(0,0,0,0.12);
                ""
              />

              <h2 style=""color:#b3122a; margin-bottom:6px;"">
                You lost.
              </h2>

              <p>Winning number: <b>3</b></p>

              <div id=""balance-display"">
                Balance: $0.86
              </div>

              <p style=""margin-top:14px;"">Press any key to continue.</p>
            </div>
",NA,html-keyboard-response,54,2.1.0,588354,558acd52fdf99b65685f03d9,558acd52fdf99b65685f03d9,696a97ad50e2fdc7466c7392,696fe06cb7837370615e5549,2026-01-20T20:15:44Z,NA,NA,NA,NA,NA,NA,NA,NA,NA,NA,NA
67262,NA,"{""regret_chosen"":1,""regret_not_winner"":18,""regret_not_hot_probe"":0}",survey-html-form,55,2.1.0,655618,558acd52fdf99b65685f03d9,558acd52fdf99b65685f03d9,696a97ad50e2fdc7466c7392,696fe06cb7837370615e5549,2026-01-20T20:15:44Z,NA,NA,NA,14,3,NA,1,NA,NA,"[9,10,3,34,2,23,6,26]",hot_win_number
NA,NA,NA,html-keyboard-response,56,2.1.0,657170,558acd52fdf99b65685f03d9,558acd52fdf99b65685f03d9,696a97ad50e2fdc7466c7392,696fe06cb7837370615e5549,2026-01-20T20:15:44Z,NA,NA,NA,13,13,1.2099999999999995,0,1,0,[],NA
1216,"
            <div style=""max-width:720px; margin:0 auto;"">
              <img
                src=""img/gain.png""
                alt=""Win""
                style=""
                  display:block;
                  margin: 0 auto 14px;
                  width: min(280px, 60vw);
                  border-radius: 14px;
                  box-shadow: 0 10px 24px rgba(0,0,0,0.12);
                ""
              />

              <h2 style=""color:#1a7f37; margin-bottom:6px;"">
                You WON!
              </h2>

              <p>Winning number: <b>13</b></p>

              <div id=""balance-display"">
                Balance: $1.21
              </div>

              <p style=""margin-top:14px;"">Press any key to continue.</p>
            </div>
",NA,html-keyboard-response,57,2.1.0,658386,558acd52fdf99b65685f03d9,558acd52fdf99b65685f03d9,696a97ad50e2fdc7466c7392,696fe06cb7837370615e5549,2026-01-20T20:15:44Z,NA,NA,NA,NA,NA,NA,NA,NA,NA,NA,NA
5431,NA,"{""regret_chosen"":0}",survey-html-form,58,2.1.0,663818,558acd52fdf99b65685f03d9,558acd52fdf99b65685f03d9,696a97ad50e2fdc7466c7392,696fe06cb7837370615e5549,2026-01-20T20:15:44Z,NA,NA,NA,13,13,NA,0,NA,NA,[],NA
NA,NA,NA,html-keyboard-response,59,2.1.0,665970,558acd52fdf99b65685f03d9,558acd52fdf99b65685f03d9,696a97ad50e2fdc7466c7392,696fe06cb7837370615e5549,2026-01-20T20:15:44Z,NA,NA,NA,29,34,1.1999999999999995,0,0,0,[],NA
1816,"
            <div style=""max-width:720px; margin:0 auto;"">
              <img
                src=""img/loss.png""
                alt=""Loss""
                style=""
                  display:block;
                  margin: 0 auto 14px;
                  width: min(280px, 60vw);
                  border-radius: 14px;
                  box-shadow: 0 10px 24px rgba(0,0,0,0.12);
                ""
              />

              <h2 style=""color:#b3122a; margin-bottom:6px;"">
                You lost.
              </h2>

              <p>Winning number: <b>34</b></p>

              <div id=""balance-display"">
                Balance: $1.20
              </div>

              <p style=""margin-top:14px;"">Press any key to continue.</p>
            </div>
",NA,html-keyboard-response,60,2.1.0,667786,558acd52fdf99b65685f03d9,558acd52fdf99b65685f03d9,696a97ad50e2fdc7466c7392,696fe06cb7837370615e5549,2026-01-20T20:15:44Z,NA,NA,NA,NA,NA,NA,NA,NA,NA,NA,NA
9382,NA,"{""regret_chosen"":20,""regret_not_winner"":54}",survey-html-form,61,2.1.0,677170,558acd52fdf99b65685f03d9,558acd52fdf99b65685f03d9,696a97ad50e2fdc7466c7392,696fe06cb7837370615e5549,2026-01-20T20:15:44Z,NA,NA,NA,29,34,NA,0,NA,NA,[],NA
NA,NA,NA,html-keyboard-response,62,2.1.0,681290,558acd52fdf99b65685f03d9,558acd52fdf99b65685f03d9,696a97ad50e2fdc7466c7392,696fe06cb7837370615e5549,2026-01-20T20:15:44Z,NA,NA,NA,1,21,1.1899999999999995,1,0,16,"[27,25,9,1,21,36,34,24,20,31,4,7,23,35,19,6]",hot_win_number
1592,"
            <div style=""max-width:720px; margin:0 auto;"">
              <img
                src=""img/loss.png""
                alt=""Loss""
                style=""
                  display:block;
                  margin: 0 auto 14px;
                  width: min(280px, 60vw);
                  border-radius: 14px;
                  box-shadow: 0 10px 24px rgba(0,0,0,0.12);
                ""
              />

              <h2 style=""color:#b3122a; margin-bottom:6px;"">
                You lost.
              </h2>

              <p>Winning number: <b>21</b></p>

              <div id=""balance-display"">
                Balance: $1.19
              </div>

              <p style=""margin-top:14px;"">Press any key to continue.</p>
            </div>
",NA,html-keyboard-response,63,2.1.0,682882,558acd52fdf99b65685f03d9,558acd52fdf99b65685f03d9,696a97ad50e2fdc7466c7392,696fe06cb7837370615e5549,2026-01-20T20:15:44Z,NA,NA,NA,NA,NA,NA,NA,NA,NA,NA,NA
14351,NA,"{""regret_chosen"":17,""regret_not_winner"":61,""regret_not_hot_probe"":0}",survey-html-form,64,2.1.0,697234,558acd52fdf99b65685f03d9,558acd52fdf99b65685f03d9,696a97ad50e2fdc7466c7392,696fe06cb7837370615e5549,2026-01-20T20:15:44Z,NA,NA,NA,1,21,NA,1,NA,NA,"[27,25,9,1,21,36,34,24,20,31,4,7,23,35,19,6]",hot_win_number
NA,NA,NA,html-keyboard-response,65,2.1.0,699386,558acd52fdf99b65685f03d9,558acd52fdf99b65685f03d9,696a97ad50e2fdc7466c7392,696fe06cb7837370615e5549,2026-01-20T20:15:44Z,NA,NA,NA,31,2,1.1799999999999995,0,0,0,[],NA
1112,"
            <div style=""max-width:720px; margin:0 auto;"">
              <img
                src=""img/loss.png""
                alt=""Loss""
                style=""
                  display:block;
                  margin: 0 auto 14px;
                  width: min(280px, 60vw);
                  border-radius: 14px;
                  box-shadow: 0 10px 24px rgba(0,0,0,0.12);
                ""
              />

              <h2 style=""color:#b3122a; margin-bottom:6px;"">
                You lost.
              </h2>

              <p>Winning number: <b>2</b></p>

              <div id=""balance-display"">
                Balance: $1.18
              </div>

              <p style=""margin-top:14px;"">Press any key to continue.</p>
            </div>
",NA,html-keyboard-response,66,2.1.0,700498,558acd52fdf99b65685f03d9,558acd52fdf99b65685f03d9,696a97ad50e2fdc7466c7392,696fe06cb7837370615e5549,2026-01-20T20:15:44Z,NA,NA,NA,NA,NA,NA,NA,NA,NA,NA,NA
8023,NA,"{""regret_chosen"":37,""regret_not_winner"":71}",survey-html-form,67,2.1.0,708522,558acd52fdf99b65685f03d9,558acd52fdf99b65685f03d9,696a97ad50e2fdc7466c7392,696fe06cb7837370615e5549,2026-01-20T20:15:44Z,NA,NA,NA,31,2,NA,0,NA,NA,[],NA
NA,NA,NA,html-keyboard-response,68,2.1.0,710178,558acd52fdf99b65685f03d9,558acd52fdf99b65685f03d9,696a97ad50e2fdc7466c7392,696fe06cb7837370615e5549,2026-01-20T20:15:44Z,NA,NA,NA,13,19,1.1699999999999997,0,0,0,[],NA
1032,"
            <div style=""max-width:720px; margin:0 auto;"">
              <img
                src=""img/loss.png""
                alt=""Loss""
                style=""
                  display:block;
                  margin: 0 auto 14px;
                  width: min(280px, 60vw);
                  border-radius: 14px;
                  box-shadow: 0 10px 24px rgba(0,0,0,0.12);
                ""
              />

              <h2 style=""color:#b3122a; margin-bottom:6px;"">
                You lost.
              </h2>

              <p>Winning number: <b>19</b></p>

              <div id=""balance-display"">
                Balance: $1.17
              </div>

              <p style=""margin-top:14px;"">Press any key to continue.</p>
            </div>
",NA,html-keyboard-response,69,2.1.0,711210,558acd52fdf99b65685f03d9,558acd52fdf99b65685f03d9,696a97ad50e2fdc7466c7392,696fe06cb7837370615e5549,2026-01-20T20:15:44Z,NA,NA,NA,NA,NA,NA,NA,NA,NA,NA,NA
7119,NA,"{""regret_chosen"":16,""regret_not_winner"":60}",survey-html-form,70,2.1.0,718330,558acd52fdf99b65685f03d9,558acd52fdf99b65685f03d9,696a97ad50e2fdc7466c7392,696fe06cb7837370615e5549,2026-01-20T20:15:44Z,NA,NA,NA,13,19,NA,0,NA,NA,[],NA
NA,NA,NA,html-keyboard-response,71,2.1.0,722114,558acd52fdf99b65685f03d9,558acd52fdf99b65685f03d9,696a97ad50e2fdc7466c7392,696fe06cb7837370615e5549,2026-01-20T20:15:44Z,NA,NA,NA,6,12,1.1599999999999997,1,0,16,"[8,23,5,27,17,30,32,6,18,29,9,31,28,26,19,15]",nonhot_win_number
1016,"
            <div style=""max-width:720px; margin:0 auto;"">
              <img
                src=""img/loss.png""
                alt=""Loss""
                style=""
                  display:block;
                  margin: 0 auto 14px;
                  width: min(280px, 60vw);
                  border-radius: 14px;
                  box-shadow: 0 10px 24px rgba(0,0,0,0.12);
                ""
              />

              <h2 style=""color:#b3122a; margin-bottom:6px;"">
                You lost.
              </h2>

              <p>Winning number: <b>12</b></p>

              <div id=""balance-display"">
                Balance: $1.16
              </div>

              <p style=""margin-top:14px;"">Press any key to continue.</p>
            </div>
",NA,html-keyboard-response,72,2.1.0,723130,558acd52fdf99b65685f03d9,558acd52fdf99b65685f03d9,696a97ad50e2fdc7466c7392,696fe06cb7837370615e5549,2026-01-20T20:15:44Z,NA,NA,NA,NA,NA,NA,NA,NA,NA,NA,NA
22989,NA,"{""regret_chosen"":12,""regret_not_winner"":51,""regret_not_hot_probe"":0}",survey-html-form,73,2.1.0,746122,558acd52fdf99b65685f03d9,558acd52fdf99b65685f03d9,696a97ad50e2fdc7466c7392,696fe06cb7837370615e5549,2026-01-20T20:15:44Z,NA,NA,NA,6,12,NA,1,NA,NA,"[8,23,5,27,17,30,32,6,18,29,9,31,28,26,19,15]",nonhot_win_number
NA,NA,NA,html-keyboard-response,74,2.1.0,749858,558acd52fdf99b65685f03d9,558acd52fdf99b65685f03d9,696a97ad50e2fdc7466c7392,696fe06cb7837370615e5549,2026-01-20T20:15:44Z,NA,NA,NA,23,21,1.1499999999999997,0,0,0,[],NA
1128,"
            <div style=""max-width:720px; margin:0 auto;"">
              <img
                src=""img/loss.png""
                alt=""Loss""
                style=""
                  display:block;
                  margin: 0 auto 14px;
                  width: min(280px, 60vw);
                  border-radius: 14px;
                  box-shadow: 0 10px 24px rgba(0,0,0,0.12);
                ""
              />

              <h2 style=""color:#b3122a; margin-bottom:6px;"">
                You lost.
              </h2>

              <p>Winning number: <b>21</b></p>

              <div id=""balance-display"">
                Balance: $1.15
              </div>

              <p style=""margin-top:14px;"">Press any key to continue.</p>
            </div>
",NA,html-keyboard-response,75,2.1.0,750986,558acd52fdf99b65685f03d9,558acd52fdf99b65685f03d9,696a97ad50e2fdc7466c7392,696fe06cb7837370615e5549,2026-01-20T20:15:44Z,NA,NA,NA,NA,NA,NA,NA,NA,NA,NA,NA
7278,NA,"{""regret_chosen"":17,""regret_not_winner"":54}",survey-html-form,76,2.1.0,758266,558acd52fdf99b65685f03d9,558acd52fdf99b65685f03d9,696a97ad50e2fdc7466c7392,696fe06cb7837370615e5549,2026-01-20T20:15:44Z,NA,NA,NA,23,21,NA,0,NA,NA,[],NA
NA,NA,NA,html-keyboard-response,77,2.1.0,760218,558acd52fdf99b65685f03d9,558acd52fdf99b65685f03d9,696a97ad50e2fdc7466c7392,696fe06cb7837370615e5549,2026-01-20T20:15:44Z,NA,NA,NA,1,1,1.4999999999999996,0,1,0,[],NA
1192,"
            <div style=""max-width:720px; margin:0 auto;"">
              <img
                src=""img/gain.png""
                alt=""Win""
                style=""
                  display:block;
                  margin: 0 auto 14px;
                  width: min(280px, 60vw);
                  border-radius: 14px;
                  box-shadow: 0 10px 24px rgba(0,0,0,0.12);
                ""
              />

              <h2 style=""color:#1a7f37; margin-bottom:6px;"">
                You WON!
              </h2>

              <p>Winning number: <b>1</b></p>

              <div id=""balance-display"">
                Balance: $1.50
              </div>

              <p style=""margin-top:14px;"">Press any key to continue.</p>
            </div>
",NA,html-keyboard-response,78,2.1.0,761411,558acd52fdf99b65685f03d9,558acd52fdf99b65685f03d9,696a97ad50e2fdc7466c7392,696fe06cb7837370615e5549,2026-01-20T20:15:44Z,NA,NA,NA,NA,NA,NA,NA,NA,NA,NA,NA
5078,NA,"{""regret_chosen"":0}",survey-html-form,79,2.1.0,766490,558acd52fdf99b65685f03d9,558acd52fdf99b65685f03d9,696a97ad50e2fdc7466c7392,696fe06cb7837370615e5549,2026-01-20T20:15:44Z,NA,NA,NA,1,1,NA,0,NA,NA,[],NA
70296,NA,"{""feedback"":""No feedback to provide, but thank you."",""age"":34,""gamble_freq_12mo"":""A few times"",""race"":""Multiracial/Mixed"",""gender"":""Female"",""ethnicity"":""Non-Hispanic""}",survey-html-form,80,2.1.0,836787,558acd52fdf99b65685f03d9,558acd52fdf99b65685f03d9,696a97ad50e2fdc7466c7392,696fe06cb7837370615e5549,2026-01-20T20:15:44Z,NA,NA,NA,NA,NA,NA,NA,NA,NA,NA,NA
4555,"<p><b>Consent Form</b></p> <div style=""text-align:left;background-color:lightblue; padding:20px; max-width:900px;""><p><b>Description:</b> Welcome! You are invited to participate in a research study in cognitive psychology. You will be asked to perform various tasks on a computer which may include: looking at images or videos, listening to sounds, reading scenarios, or playing games. You may be asked a number of different questions about your feelings and yourself. All information collected will remain confidential. </p> <p> <b>Risks and benefits:</b> Risks involved in this study are the same as those normally associated with using a computer (e.g., mild eye/arm strain). If you have any pre- existing conditions that might make reading and completing a computer-based survey strenuous for you, you should probably elect to not participate in this study. If at any time during the study you feel unable to participate because you are experiencing strain, you may end your participation without penalty. We cannot and do not guarantee or promise that you will receive any benefits from this study. Your decision whether or not to participate in this study will not affect your employment, medical care, and/or grades in school. </p><p><b>Time involvement:</b> Your participation in this experiment will take 5-10 minutes. </p><p><b> Payment:</b> You will receive compensation as indicated in the Prolific listing. </p><p><b>Subject's rights:</b> If you have read this notice and have decided to participate in this project, please understand your participation is voluntary and you have the right to withdraw your consent or discontinue participation at any time without penalty or loss of benefits to which you are otherwise entitled. You have the right to refuse to answer particular questions. Your individual privacy will be maintained in all published and written data resulting from the study. </p><p><b>Contact information:</b> If you have any questions, concerns or complaints about this research study, its procedures, or risks and benefits, you should ask the Protocol Director, (Kate Petrova, Email: kpetrova@stanford.edu). </p><p><b>Independent contact:</b> If you are not satisfied with how this study is being conducted, or if you have any concerns, complaints, or general questions about the research or your rights as a participant, please contact the Stanford Institutional Review Board (IRB) to speak to someone independent of the research team via email at irb2-manager@lists.stanford.edu, or via phone at (650) 723-2480 or toll free at 1-866-680-2906. You can also write to the Stanford IRB, Stanford University, 3000 El Camino Real, Five Palo Alto Square, 4th Floor, Palo Alto, CA 94306. </p><p>You may want to print a copy of this consent form to keep. By clicking the button below, you acknowledge that you have read the above information, that you are 18 years of age, or older and give your consent to participate in our internet-based study and consent for us to analyze the resulting data. </p> </div><p> Do you agree with the terms of the experiment as explained above? </p>",0,html-button-response,0,2.1.0,4563,566c9284d408ea000519c6d7,566c9284d408ea000519c6d7,697001ac4d594eadb9108322,6970249cc4d6f5b22237261d,2026-01-21T01:04:39Z,NA,NA,NA,NA,NA,NA,NA,NA,NA,NA,NA
89392,NA,NA,instructions,1,2.1.0,93958,566c9284d408ea000519c6d7,566c9284d408ea000519c6d7,697001ac4d594eadb9108322,6970249cc4d6f5b22237261d,2026-01-21T01:04:39Z,"[{""page_index"":0,""viewing_time"":6034},{""page_index"":1,""viewing_time"":15303},{""page_index"":2,""viewing_time"":26452},{""page_index"":3,""viewing_time"":6404},{""page_index"":4,""viewing_time"":6177},{""page_index"":5,""viewing_time"":4716},{""page_index"":6,""viewing_time"":4267},{""page_index"":7,""viewing_time"":6150},{""page_index"":8,""viewing_time"":10943},{""page_index"":9,""viewing_time"":1616},{""page_index"":10,""viewing_time"":1330}]",NA,NA,NA,NA,NA,NA,NA,NA,NA,NA
17969,NA,"{""Q0"":""False"",""Q1"":""True"",""Q2"":""True"",""Q3"":""True"",""Q4"":""True""}",survey-multi-choice,2,2.1.0,111931,566c9284d408ea000519c6d7,566c9284d408ea000519c6d7,697001ac4d594eadb9108322,6970249cc4d6f5b22237261d,2026-01-21T01:04:39Z,NA,"[0,1,2,3,4]",FALSE,NA,NA,NA,NA,NA,NA,NA,NA
1918,"
          <h3>Oh no!</h3>
          <p>You got one or more questions wrong.</p>
          <p>Please go back, review the instructions, and try the comprehension check again!</p>
",0,html-button-response,3,2.1.0,113852,566c9284d408ea000519c6d7,566c9284d408ea000519c6d7,697001ac4d594eadb9108322,6970249cc4d6f5b22237261d,2026-01-21T01:04:39Z,NA,NA,NA,NA,NA,NA,NA,NA,NA,NA,NA
27129,NA,NA,instructions,4,2.1.0,140983,566c9284d408ea000519c6d7,566c9284d408ea000519c6d7,697001ac4d594eadb9108322,6970249cc4d6f5b22237261d,2026-01-21T01:04:39Z,"[{""page_index"":0,""viewing_time"":1377},{""page_index"":1,""viewing_time"":4738},{""page_index"":2,""viewing_time"":5554},{""page_index"":3,""viewing_time"":3307},{""page_index"":4,""viewing_time"":5522},{""page_index"":5,""viewing_time"":2410},{""page_index"":6,""viewing_time"":812},{""page_index"":7,""viewing_time"":941},{""page_index"":8,""viewing_time"":1159},{""page_index"":9,""viewing_time"":743},{""page_index"":10,""viewing_time"":567}]",NA,NA,NA,NA,NA,NA,NA,NA,NA,NA
19707,NA,"{""Q0"":""False"",""Q1"":""True"",""Q2"":""False"",""Q3"":""True"",""Q4"":""True""}",survey-multi-choice,5,2.1.0,160694,566c9284d408ea000519c6d7,566c9284d408ea000519c6d7,697001ac4d594eadb9108322,6970249cc4d6f5b22237261d,2026-01-21T01:04:39Z,NA,"[0,1,2,3,4]",TRUE,NA,NA,NA,NA,NA,NA,NA,NA
1804,"
        <h3>You are now ready to begin the game.</h3>
