"rt","stimulus","response","trial_type","trial_index","plugin_version","time_elapsed","participant_id","prolific_pid","prolific_study_id","prolific_session_id","date_iso","view_history","question_order","correct","choice","outcome","balance","banner","win_status","hot_set_size","hot_numbers","outcome_rel_to_hot"
"5554","<p><b>Consent Form</b></p> <div style=""text-align:left;background-color:lightblue; padding:20px; max-width:900px;""><p><b>Description:</b> Welcome! You are invited to participate in a research study in cognitive psychology. You will be asked to perform various tasks on a computer which may include: looking at images or videos, listening to sounds, reading scenarios, or playing games. You may be asked a number of different questions about your feelings and yourself. All information collected will remain confidential. </p> <p> <b>Risks and benefits:</b> Risks involved in this study are the same as those normally associated with using a computer (e.g., mild eye/arm strain). If you have any pre- existing conditions that might make reading and completing a computer-based survey strenuous for you, you should probably elect to not participate in this study. If at any time during the study you feel unable to participate because you are experiencing strain, you may end your participation without penalty. We cannot and do not guarantee or promise that you will receive any benefits from this study. Your decision whether or not to participate in this study will not affect your employment, medical care, and/or grades in school. </p><p><b>Time involvement:</b> Your participation in this experiment will take 5-10 minutes. </p><p><b> Payment:</b> You will receive compensation as indicated in the Prolific listing. </p><p><b>Subject's rights:</b> If you have read this notice and have decided to participate in this project, please understand your participation is voluntary and you have the right to withdraw your consent or discontinue participation at any time without penalty or loss of benefits to which you are otherwise entitled. You have the right to refuse to answer particular questions. Your individual privacy will be maintained in all published and written data resulting from the study. </p><p><b>Contact information:</b> If you have any questions, concerns or complaints about this research study, its procedures, or risks and benefits, you should ask the Protocol Director, (Kate Petrova, Email: kpetrova@stanford.edu). </p><p><b>Independent contact:</b> If you are not satisfied with how this study is being conducted, or if you have any concerns, complaints, or general questions about the research or your rights as a participant, please contact the Stanford Institutional Review Board (IRB) to speak to someone independent of the research team via email at irb2-manager@lists.stanford.edu, or via phone at (650) 723-2480 or toll free at 1-866-680-2906. You can also write to the Stanford IRB, Stanford University, 3000 El Camino Real, Five Palo Alto Square, 4th Floor, Palo Alto, CA 94306. </p><p>You may want to print a copy of this consent form to keep. By clicking the button below, you acknowledge that you have read the above information, that you are 18 years of age, or older and give your consent to participate in our internet-based study and consent for us to analyze the resulting data. </p> </div><p> Do you agree with the terms of the experiment as explained above? </p>","0","html-button-response","0","2.1.0","5557","5ee00b8630f30b34f2a5dc1c","5ee00b8630f30b34f2a5dc1c","697191ef92bff03015a0bf86","697197253873597a136b3be6","2026-01-22T03:19:14.389Z","","","","","","","","","","",""
"69141","","","instructions","1","2.1.0","74699","5ee00b8630f30b34f2a5dc1c","5ee00b8630f30b34f2a5dc1c","697191ef92bff03015a0bf86","697197253873597a136b3be6","2026-01-22T03:19:14.389Z","[{""page_index"":0,""viewing_time"":8798},{""page_index"":1,""viewing_time"":15542},{""page_index"":2,""viewing_time"":10903},{""page_index"":3,""viewing_time"":2351},{""page_index"":4,""viewing_time"":3246},{""page_index"":5,""viewing_time"":10787},{""page_index"":6,""viewing_time"":13094},{""page_index"":7,""viewing_time"":2656},{""page_index"":8,""viewing_time"":1764}]","","","","","","","","","",""
"36650","","{""Q0"":""False"",""Q1"":""True"",""Q2"":""False"",""Q3"":""True"",""Q4"":""True""}","survey-multi-choice","2","2.1.0","111351","5ee00b8630f30b34f2a5dc1c","5ee00b8630f30b34f2a5dc1c","697191ef92bff03015a0bf86","697197253873597a136b3be6","2026-01-22T03:19:14.389Z","","[0,1,2,3,4]","true","","","","","","","",""
"16559","
        <h3>You are now ready to begin the game.</h3>
        <img class=""instr-hero"" src=""img/heart.png"" alt=""Minecraft illustration"">
        <p>Remember, your goal is to mine as many emeralds as you can.</p>
        <p><b>Happy mining!</b></p>
        <p>Press any key to start.</p>
      "," ","html-keyboard-response","4","2.1.0","127911","5ee00b8630f30b34f2a5dc1c","5ee00b8630f30b34f2a5dc1c","697191ef92bff03015a0bf86","697197253873597a136b3be6","2026-01-22T03:19:14.389Z","","","","","","","","","","",""
"","","","html-keyboard-response","5","2.1.0","134215","5ee00b8630f30b34f2a5dc1c","5ee00b8630f30b34f2a5dc1c","697191ef92bff03015a0bf86","697197253873597a136b3be6","2026-01-22T03:19:14.389Z","","","","33","7","-0.01","0","0","0","[]","NA"
"3150","
            <div style=""max-width:720px; margin:0 auto;"">
              <img
                src=""img/creeper.png""
                alt=""Loss""
                style=""
                  display:block;
                  margin: 0 auto 14px;
                  width: min(280px, 60vw);
                  border-radius: 14px;
                  box-shadow: 0 10px 24px rgba(0,0,0,0.12);
                ""
              />

              <h2 style=""color:#b3122a; margin-bottom:6px;"">
                You got nothing.
              </h2>

              <p>Block that had an emerald: <b>7</b></p>
              <p>Block that you chose: <b>33</b></p>

              <div class=""wins-display"" aria-label=""Wins so far"">
                <img src=""img/emerald.png"" alt=""Emerald"">
                <span class=""wins-label"">Wins:</span>
                <span class=""wins-count"">0</span>
              </div>

              <p style=""margin-top:14px;"">Press any key to continue.</p>
            </div>
          "," ","html-keyboard-response","6","2.1.0","137366","5ee00b8630f30b34f2a5dc1c","5ee00b8630f30b34f2a5dc1c","697191ef92bff03015a0bf86","697197253873597a136b3be6","2026-01-22T03:19:14.389Z","","","","","","","","","","",""
"10531","","{""regret_chosen"":94,""regret_not_winner"":100}","survey-html-form","7","2.1.0","147899","5ee00b8630f30b34f2a5dc1c","5ee00b8630f30b34f2a5dc1c","697191ef92bff03015a0bf86","697197253873597a136b3be6","2026-01-22T03:19:14.389Z","","","","33","7","","0","","","[]","NA"
"","","","html-keyboard-response","8","2.1.0","150375","5ee00b8630f30b34f2a5dc1c","5ee00b8630f30b34f2a5dc1c","697191ef92bff03015a0bf86","697197253873597a136b3be6","2026-01-22T03:19:14.389Z","","","","7","34","-0.02","0","0","0","[]","NA"
"3093","
            <div style=""max-width:720px; margin:0 auto;"">
              <img
                src=""img/creeper.png""
                alt=""Loss""
                style=""
                  display:block;
                  margin: 0 auto 14px;
                  width: min(280px, 60vw);
                  border-radius: 14px;
                  box-shadow: 0 10px 24px rgba(0,0,0,0.12);
                ""
              />

              <h2 style=""color:#b3122a; margin-bottom:6px;"">
                You got nothing.
              </h2>

              <p>Block that had an emerald: <b>34</b></p>
              <p>Block that you chose: <b>7</b></p>

              <div class=""wins-display"" aria-label=""Wins so far"">
                <img src=""img/emerald.png"" alt=""Emerald"">
                <span class=""wins-label"">Wins:</span>
                <span class=""wins-count"">0</span>
              </div>

              <p style=""margin-top:14px;"">Press any key to continue.</p>
            </div>
          ","n","html-keyboard-response","9","2.1.0","153469","5ee00b8630f30b34f2a5dc1c","5ee00b8630f30b34f2a5dc1c","697191ef92bff03015a0bf86","697197253873597a136b3be6","2026-01-22T03:19:14.389Z","","","","","","","","","","",""
"9000","","{""regret_chosen"":89,""regret_not_winner"":100}","survey-html-form","10","2.1.0","162470","5ee00b8630f30b34f2a5dc1c","5ee00b8630f30b34f2a5dc1c","697191ef92bff03015a0bf86","697197253873597a136b3be6","2026-01-22T03:19:14.389Z","","","","7","34","","0","","","[]","NA"
"","","","html-keyboard-response","11","2.1.0","164229","5ee00b8630f30b34f2a5dc1c","5ee00b8630f30b34f2a5dc1c","697191ef92bff03015a0bf86","697197253873597a136b3be6","2026-01-22T03:19:14.389Z","","","","35","22","-0.03","0","0","0","[]","NA"
"2756","
            <div style=""max-width:720px; margin:0 auto;"">
              <img
                src=""img/creeper.png""
                alt=""Loss""
                style=""
                  display:block;
                  margin: 0 auto 14px;
                  width: min(280px, 60vw);
                  border-radius: 14px;
                  box-shadow: 0 10px 24px rgba(0,0,0,0.12);
                ""
              />

              <h2 style=""color:#b3122a; margin-bottom:6px;"">
                You got nothing.
              </h2>

              <p>Block that had an emerald: <b>22</b></p>
              <p>Block that you chose: <b>35</b></p>

              <div class=""wins-display"" aria-label=""Wins so far"">
                <img src=""img/emerald.png"" alt=""Emerald"">
                <span class=""wins-label"">Wins:</span>
                <span class=""wins-count"">0</span>
              </div>

              <p style=""margin-top:14px;"">Press any key to continue.</p>
            </div>
          ","Shift","html-keyboard-response","12","2.1.0","166986","5ee00b8630f30b34f2a5dc1c","5ee00b8630f30b34f2a5dc1c","697191ef92bff03015a0bf86","697197253873597a136b3be6","2026-01-22T03:19:14.389Z","","","","","","","","","","",""
"4978","","{""regret_chosen"":92,""regret_not_winner"":100}","survey-html-form","13","2.1.0","171965","5ee00b8630f30b34f2a5dc1c","5ee00b8630f30b34f2a5dc1c","697191ef92bff03015a0bf86","697197253873597a136b3be6","2026-01-22T03:19:14.389Z","","","","35","22","","0","","","[]","NA"
"","","","html-keyboard-response","14","2.1.0","176917","5ee00b8630f30b34f2a5dc1c","5ee00b8630f30b34f2a5dc1c","697191ef92bff03015a0bf86","697197253873597a136b3be6","2026-01-22T03:19:14.389Z","","","","36","20","-0.04","0","0","0","[]","NA"
"2282","
            <div style=""max-width:720px; margin:0 auto;"">
              <img
                src=""img/creeper.png""
                alt=""Loss""
                style=""
                  display:block;
                  margin: 0 auto 14px;
                  width: min(280px, 60vw);
                  border-radius: 14px;
                  box-shadow: 0 10px 24px rgba(0,0,0,0.12);
                ""
              />

              <h2 style=""color:#b3122a; margin-bottom:6px;"">
                You got nothing.
              </h2>

              <p>Block that had an emerald: <b>20</b></p>
              <p>Block that you chose: <b>36</b></p>

              <div class=""wins-display"" aria-label=""Wins so far"">
                <img src=""img/emerald.png"" alt=""Emerald"">
                <span class=""wins-label"">Wins:</span>
                <span class=""wins-count"">0</span>
              </div>

              <p style=""margin-top:14px;"">Press any key to continue.</p>
            </div>
          ","l","html-keyboard-response","15","2.1.0","179200","5ee00b8630f30b34f2a5dc1c","5ee00b8630f30b34f2a5dc1c","697191ef92bff03015a0bf86","697197253873597a136b3be6","2026-01-22T03:19:14.389Z","","","","","","","","","","",""
"7400","","{""regret_chosen"":85,""regret_not_winner"":92}","survey-html-form","16","2.1.0","186601","5ee00b8630f30b34f2a5dc1c","5ee00b8630f30b34f2a5dc1c","697191ef92bff03015a0bf86","697197253873597a136b3be6","2026-01-22T03:19:14.389Z","","","","36","20","","0","","","[]","NA"
"","","","html-keyboard-response","17","2.1.0","188286","5ee00b8630f30b34f2a5dc1c","5ee00b8630f30b34f2a5dc1c","697191ef92bff03015a0bf86","697197253873597a136b3be6","2026-01-22T03:19:14.389Z","","","","1","1","0.31","0","1","0","[]","NA"
"2586","
            <div style=""max-width:720px; margin:0 auto;"">
              <img
                src=""img/emerald.png""
                alt=""Win""
                style=""
                  display:block;
                  margin: 0 auto 14px;
                  width: min(280px, 60vw);
                  border-radius: 14px;
                  box-shadow: 0 10px 24px rgba(0,0,0,0.12);
                ""
              />

              <h2 style=""color:#1a7f37; margin-bottom:6px;"">
                You got emerald!
              </h2>

              <p>Block that had an emerald: <b>1</b></p>
              <p>Block that you chose: <b>1</b></p>

              <div class=""wins-display"" aria-label=""Wins so far"">
                <img src=""img/emerald.png"" alt=""Emerald"">
                <span class=""wins-label"">Wins:</span>
                <span class=""wins-count"">1</span>
              </div>

              <p style=""margin-top:14px;"">Press any key to continue.</p>
            </div>
          ","Shift","html-keyboard-response","18","2.1.0","190873","5ee00b8630f30b34f2a5dc1c","5ee00b8630f30b34f2a5dc1c","697191ef92bff03015a0bf86","697197253873597a136b3be6","2026-01-22T03:19:14.389Z","","","","","","","","","","",""
"2867","","{""regret_chosen"":0}","survey-html-form","19","2.1.0","193741","5ee00b8630f30b34f2a5dc1c","5ee00b8630f30b34f2a5dc1c","697191ef92bff03015a0bf86","697197253873597a136b3be6","2026-01-22T03:19:14.389Z","","","","1","1","","0","","","[]","NA"
"","","","html-keyboard-response","20","2.1.0","196214","5ee00b8630f30b34f2a5dc1c","5ee00b8630f30b34f2a5dc1c","697191ef92bff03015a0bf86","697197253873597a136b3be6","2026-01-22T03:19:14.389Z","","","","2","30","0.3","0","0","0","[]","NA"
"2105","
            <div style=""max-width:720px; margin:0 auto;"">
              <img
                src=""img/creeper.png""
                alt=""Loss""
                style=""
                  display:block;
                  margin: 0 auto 14px;
                  width: min(280px, 60vw);
                  border-radius: 14px;
                  box-shadow: 0 10px 24px rgba(0,0,0,0.12);
                ""
              />

              <h2 style=""color:#b3122a; margin-bottom:6px;"">
                You got nothing.
              </h2>

              <p>Block that had an emerald: <b>30</b></p>
              <p>Block that you chose: <b>2</b></p>

              <div class=""wins-display"" aria-label=""Wins so far"">
                <img src=""img/emerald.png"" alt=""Emerald"">
                <span class=""wins-label"">Wins:</span>
                <span class=""wins-count"">1</span>
              </div>

              <p style=""margin-top:14px;"">Press any key to continue.</p>
            </div>
          ","l","html-keyboard-response","21","2.1.0","198320","5ee00b8630f30b34f2a5dc1c","5ee00b8630f30b34f2a5dc1c","697191ef92bff03015a0bf86","697197253873597a136b3be6","2026-01-22T03:19:14.389Z","","","","","","","","","","",""
"3747","","{""regret_chosen"":95,""regret_not_winner"":100}","survey-html-form","22","2.1.0","202068","5ee00b8630f30b34f2a5dc1c","5ee00b8630f30b34f2a5dc1c","697191ef92bff03015a0bf86","697197253873597a136b3be6","2026-01-22T03:19:14.389Z","","","","2","30","","0","","","[]","NA"
"","","","html-keyboard-response","23","2.1.0","204567","5ee00b8630f30b34f2a5dc1c","5ee00b8630f30b34f2a5dc1c","697191ef92bff03015a0bf86","697197253873597a136b3be6","2026-01-22T03:19:14.389Z","","","","22","31","0.29","1","0","3","[10,31,11]","hot_win_number"
"3007","
            <div style=""max-width:720px; margin:0 auto;"">
              <img
                src=""img/creeper.png""
                alt=""Loss""
                style=""
                  display:block;
                  margin: 0 auto 14px;
                  width: min(280px, 60vw);
                  border-radius: 14px;
                  box-shadow: 0 10px 24px rgba(0,0,0,0.12);
                ""
              />

              <h2 style=""color:#b3122a; margin-bottom:6px;"">
                You got nothing.
              </h2>

              <p>Block that had an emerald: <b>31</b></p>
              <p>Block that you chose: <b>22</b></p>

              <div class=""wins-display"" aria-label=""Wins so far"">
                <img src=""img/emerald.png"" alt=""Emerald"">
                <span class=""wins-label"">Wins:</span>
                <span class=""wins-count"">1</span>
              </div>

              <p style=""margin-top:14px;"">Press any key to continue.</p>
            </div>
          ","l","html-keyboard-response","24","2.1.0","207575","5ee00b8630f30b34f2a5dc1c","5ee00b8630f30b34f2a5dc1c","697191ef92bff03015a0bf86","697197253873597a136b3be6","2026-01-22T03:19:14.389Z","","","","","","","","","","",""
"6497","","{""regret_chosen"":99,""regret_not_winner"":100}","survey-html-form","25","2.1.0","214073","5ee00b8630f30b34f2a5dc1c","5ee00b8630f30b34f2a5dc1c","697191ef92bff03015a0bf86","697197253873597a136b3be6","2026-01-22T03:19:14.389Z","","","","22","31","","1","","","[10,31,11]","hot_win_number"
"","","","html-keyboard-response","26","2.1.0","216424","5ee00b8630f30b34f2a5dc1c","5ee00b8630f30b34f2a5dc1c","697191ef92bff03015a0bf86","697197253873597a136b3be6","2026-01-22T03:19:14.389Z","","","","9","32","0.27999999999999997","1","0","2","[9,20]","nonhot_win_number"
"2609","
            <div style=""max-width:720px; margin:0 auto;"">
              <img
                src=""img/creeper.png""
                alt=""Loss""
                style=""
                  display:block;
                  margin: 0 auto 14px;
                  width: min(280px, 60vw);
                  border-radius: 14px;
                  box-shadow: 0 10px 24px rgba(0,0,0,0.12);
                ""
              />

              <h2 style=""color:#b3122a; margin-bottom:6px;"">
                You got nothing.
              </h2>

              <p>Block that had an emerald: <b>32</b></p>
              <p>Block that you chose: <b>9</b></p>

              <div class=""wins-display"" aria-label=""Wins so far"">
                <img src=""img/emerald.png"" alt=""Emerald"">
                <span class=""wins-label"">Wins:</span>
                <span class=""wins-count"">1</span>
              </div>

              <p style=""margin-top:14px;"">Press any key to continue.</p>
            </div>
          ","l","html-keyboard-response","27","2.1.0","219033","5ee00b8630f30b34f2a5dc1c","5ee00b8630f30b34f2a5dc1c","697191ef92bff03015a0bf86","697197253873597a136b3be6","2026-01-22T03:19:14.389Z","","","","","","","","","","",""
"6603","","{""regret_chosen"":74,""regret_not_winner"":100}","survey-html-form","28","2.1.0","225637","5ee00b8630f30b34f2a5dc1c","5ee00b8630f30b34f2a5dc1c","697191ef92bff03015a0bf86","697197253873597a136b3be6","2026-01-22T03:19:14.389Z","","","","9","32","","1","","","[9,20]","nonhot_win_number"
"","","","html-keyboard-response","29","2.1.0","229456","5ee00b8630f30b34f2a5dc1c","5ee00b8630f30b34f2a5dc1c","697191ef92bff03015a0bf86","697197253873597a136b3be6","2026-01-22T03:19:14.389Z","","","","9","19","0.26999999999999996","0","0","0","[]","NA"
"2107","
            <div style=""max-width:720px; margin:0 auto;"">
              <img
                src=""img/creeper.png""
                alt=""Loss""
                style=""
                  display:block;
                  margin: 0 auto 14px;
                  width: min(280px, 60vw);
                  border-radius: 14px;
                  box-shadow: 0 10px 24px rgba(0,0,0,0.12);
                ""
              />

              <h2 style=""color:#b3122a; margin-bottom:6px;"">
                You got nothing.
              </h2>

              <p>Block that had an emerald: <b>19</b></p>
              <p>Block that you chose: <b>9</b></p>

              <div class=""wins-display"" aria-label=""Wins so far"">
                <img src=""img/emerald.png"" alt=""Emerald"">
                <span class=""wins-label"">Wins:</span>
                <span class=""wins-count"">1</span>
              </div>

              <p style=""margin-top:14px;"">Press any key to continue.</p>
            </div>
          ","l","html-keyboard-response","30","2.1.0","231564","5ee00b8630f30b34f2a5dc1c","5ee00b8630f30b34f2a5dc1c","697191ef92bff03015a0bf86","697197253873597a136b3be6","2026-01-22T03:19:14.389Z","","","","","","","","","","",""
"3040","","{""regret_chosen"":82,""regret_not_winner"":100}","survey-html-form","31","2.1.0","234605","5ee00b8630f30b34f2a5dc1c","5ee00b8630f30b34f2a5dc1c","697191ef92bff03015a0bf86","697197253873597a136b3be6","2026-01-22T03:19:14.389Z","","","","9","19","","0","","","[]","NA"
"","","","html-keyboard-response","32","2.1.0","236218","5ee00b8630f30b34f2a5dc1c","5ee00b8630f30b34f2a5dc1c","697191ef92bff03015a0bf86","697197253873597a136b3be6","2026-01-22T03:19:14.389Z","","","","9","18","0.25999999999999995","0","0","0","[]","NA"
"1950","
            <div style=""max-width:720px; margin:0 auto;"">
              <img
                src=""img/creeper.png""
                alt=""Loss""
                style=""
                  display:block;
                  margin: 0 auto 14px;
                  width: min(280px, 60vw);
                  border-radius: 14px;
                  box-shadow: 0 10px 24px rgba(0,0,0,0.12);
                ""
              />

              <h2 style=""color:#b3122a; margin-bottom:6px;"">
                You got nothing.
              </h2>

              <p>Block that had an emerald: <b>18</b></p>
              <p>Block that you chose: <b>9</b></p>

              <div class=""wins-display"" aria-label=""Wins so far"">
                <img src=""img/emerald.png"" alt=""Emerald"">
                <span class=""wins-label"">Wins:</span>
                <span class=""wins-count"">1</span>
              </div>

              <p style=""margin-top:14px;"">Press any key to continue.</p>
            </div>
          ","l","html-keyboard-response","33","2.1.0","238169","5ee00b8630f30b34f2a5dc1c","5ee00b8630f30b34f2a5dc1c","697191ef92bff03015a0bf86","697197253873597a136b3be6","2026-01-22T03:19:14.389Z","","","","","","","","","","",""
"4440","","{""regret_chosen"":84,""regret_not_winner"":100}","survey-html-form","34","2.1.0","242611","5ee00b8630f30b34f2a5dc1c","5ee00b8630f30b34f2a5dc1c","697191ef92bff03015a0bf86","697197253873597a136b3be6","2026-01-22T03:19:14.389Z","","","","9","18","","0","","","[]","NA"
"","","","html-keyboard-response","35","2.1.0","246268","5ee00b8630f30b34f2a5dc1c","5ee00b8630f30b34f2a5dc1c","697191ef92bff03015a0bf86","697197253873597a136b3be6","2026-01-22T03:19:14.389Z","","","","32","4","0.24999999999999994","1","0","3","[32,31,8]","nonhot_win_number"
"2492","
            <div style=""max-width:720px; margin:0 auto;"">
              <img
                src=""img/creeper.png""
                alt=""Loss""
                style=""
                  display:block;
                  margin: 0 auto 14px;
                  width: min(280px, 60vw);
                  border-radius: 14px;
                  box-shadow: 0 10px 24px rgba(0,0,0,0.12);
                ""
              />

              <h2 style=""color:#b3122a; margin-bottom:6px;"">
                You got nothing.
              </h2>

              <p>Block that had an emerald: <b>4</b></p>
              <p>Block that you chose: <b>32</b></p>

              <div class=""wins-display"" aria-label=""Wins so far"">
                <img src=""img/emerald.png"" alt=""Emerald"">
                <span class=""wins-label"">Wins:</span>
                <span class=""wins-count"">1</span>
              </div>

              <p style=""margin-top:14px;"">Press any key to continue.</p>
            </div>
          ","l","html-keyboard-response","36","2.1.0","248761","5ee00b8630f30b34f2a5dc1c","5ee00b8630f30b34f2a5dc1c","697191ef92bff03015a0bf86","697197253873597a136b3be6","2026-01-22T03:19:14.389Z","","","","","","","","","","",""
"5885","","{""regret_chosen"":83,""regret_not_winner"":100}","survey-html-form","37","2.1.0","254647","5ee00b8630f30b34f2a5dc1c","5ee00b8630f30b34f2a5dc1c","697191ef92bff03015a0bf86","697197253873597a136b3be6","2026-01-22T03:19:14.389Z","","","","32","4","","1","","","[32,31,8]","nonhot_win_number"
"","","","html-keyboard-response","38","2.1.0","259647","5ee00b8630f30b34f2a5dc1c","5ee00b8630f30b34f2a5dc1c","697191ef92bff03015a0bf86","697197253873597a136b3be6","2026-01-22T03:19:14.389Z","","","","20","20","0.5999999999999999","0","1","0","[]","NA"
"2045","
            <div style=""max-width:720px; margin:0 auto;"">
              <img
                src=""img/emerald.png""
                alt=""Win""
                style=""
                  display:block;
                  margin: 0 auto 14px;
                  width: min(280px, 60vw);
                  border-radius: 14px;
                  box-shadow: 0 10px 24px rgba(0,0,0,0.12);
                ""
              />

              <h2 style=""color:#1a7f37; margin-bottom:6px;"">
                You got emerald!
              </h2>

              <p>Block that had an emerald: <b>20</b></p>
              <p>Block that you chose: <b>20</b></p>

              <div class=""wins-display"" aria-label=""Wins so far"">
                <img src=""img/emerald.png"" alt=""Emerald"">
                <span class=""wins-label"">Wins:</span>
                <span class=""wins-count"">2</span>
              </div>

              <p style=""margin-top:14px;"">Press any key to continue.</p>
            </div>
          ","l","html-keyboard-response","39","2.1.0","261693","5ee00b8630f30b34f2a5dc1c","5ee00b8630f30b34f2a5dc1c","697191ef92bff03015a0bf86","697197253873597a136b3be6","2026-01-22T03:19:14.389Z","","","","","","","","","","",""
"2770","","{""regret_chosen"":0}","survey-html-form","40","2.1.0","264463","5ee00b8630f30b34f2a5dc1c","5ee00b8630f30b34f2a5dc1c","697191ef92bff03015a0bf86","697197253873597a136b3be6","2026-01-22T03:19:14.389Z","","","","20","20","","0","","","[]","NA"
"","","","html-keyboard-response","41","2.1.0","268141","5ee00b8630f30b34f2a5dc1c","5ee00b8630f30b34f2a5dc1c","697191ef92bff03015a0bf86","697197253873597a136b3be6","2026-01-22T03:19:14.389Z","","","","9","10","0.5899999999999999","1","0","8","[9,4,16,14,15,25,21,28]","nonhot_win_number"
"1986","
            <div style=""max-width:720px; margin:0 auto;"">
              <img
                src=""img/creeper.png""
                alt=""Loss""
                style=""
                  display:block;
                  margin: 0 auto 14px;
                  width: min(280px, 60vw);
                  border-radius: 14px;
                  box-shadow: 0 10px 24px rgba(0,0,0,0.12);
                ""
              />

              <h2 style=""color:#b3122a; margin-bottom:6px;"">
                You got nothing.
              </h2>

              <p>Block that had an emerald: <b>10</b></p>
              <p>Block that you chose: <b>9</b></p>

              <div class=""wins-display"" aria-label=""Wins so far"">
                <img src=""img/emerald.png"" alt=""Emerald"">
                <span class=""wins-label"">Wins:</span>
                <span class=""wins-count"">2</span>
              </div>

              <p style=""margin-top:14px;"">Press any key to continue.</p>
            </div>
          ","l","html-keyboard-response","42","2.1.0","270128","5ee00b8630f30b34f2a5dc1c","5ee00b8630f30b34f2a5dc1c","697191ef92bff03015a0bf86","697197253873597a136b3be6","2026-01-22T03:19:14.389Z","","","","","","","","","","",""
"5244","","{""regret_chosen"":74,""regret_not_winner"":100}","survey-html-form","43","2.1.0","275373","5ee00b8630f30b34f2a5dc1c","5ee00b8630f30b34f2a5dc1c","697191ef92bff03015a0bf86","697197253873597a136b3be6","2026-01-22T03:19:14.389Z","","","","9","10","","1","","","[9,4,16,14,15,25,21,28]","nonhot_win_number"
"","","","html-keyboard-response","44","2.1.0","284234","5ee00b8630f30b34f2a5dc1c","5ee00b8630f30b34f2a5dc1c","697191ef92bff03015a0bf86","697197253873597a136b3be6","2026-01-22T03:19:14.389Z","","","","21","22","0.5799999999999998","1","0","16","[21,22,6,15,28,23,36,1,7,16,5,2,18,25,29,35]","hot_win_number"
"2273","
            <div style=""max-width:720px; margin:0 auto;"">
              <img
                src=""img/creeper.png""
                alt=""Loss""
                style=""
                  display:block;
                  margin: 0 auto 14px;
                  width: min(280px, 60vw);
                  border-radius: 14px;
                  box-shadow: 0 10px 24px rgba(0,0,0,0.12);
                ""
              />

              <h2 style=""color:#b3122a; margin-bottom:6px;"">
                You got nothing.
              </h2>

              <p>Block that had an emerald: <b>22</b></p>
              <p>Block that you chose: <b>21</b></p>

              <div class=""wins-display"" aria-label=""Wins so far"">
                <img src=""img/emerald.png"" alt=""Emerald"">
                <span class=""wins-label"">Wins:</span>
                <span class=""wins-count"">2</span>
              </div>

              <p style=""margin-top:14px;"">Press any key to continue.</p>
            </div>
          ","l","html-keyboard-response","45","2.1.0","286508","5ee00b8630f30b34f2a5dc1c","5ee00b8630f30b34f2a5dc1c","697191ef92bff03015a0bf86","697197253873597a136b3be6","2026-01-22T03:19:14.389Z","","","","","","","","","","",""
"2944","","{""regret_chosen"":91,""regret_not_winner"":100}","survey-html-form","46","2.1.0","289452","5ee00b8630f30b34f2a5dc1c","5ee00b8630f30b34f2a5dc1c","697191ef92bff03015a0bf86","697197253873597a136b3be6","2026-01-22T03:19:14.389Z","","","","21","22","","1","","","[21,22,6,15,28,23,36,1,7,16,5,2,18,25,29,35]","hot_win_number"
"","","","html-keyboard-response","47","2.1.0","296197","5ee00b8630f30b34f2a5dc1c","5ee00b8630f30b34f2a5dc1c","697191ef92bff03015a0bf86","697197253873597a136b3be6","2026-01-22T03:19:14.389Z","","","","9","34","0.5699999999999998","0","0","0","[]","NA"
"1866","
            <div style=""max-width:720px; margin:0 auto;"">
              <img
                src=""img/creeper.png""
                alt=""Loss""
                style=""
                  display:block;
                  margin: 0 auto 14px;
                  width: min(280px, 60vw);
                  border-radius: 14px;
                  box-shadow: 0 10px 24px rgba(0,0,0,0.12);
                ""
              />

              <h2 style=""color:#b3122a; margin-bottom:6px;"">
                You got nothing.
              </h2>

              <p>Block that had an emerald: <b>34</b></p>
              <p>Block that you chose: <b>9</b></p>

              <div class=""wins-display"" aria-label=""Wins so far"">
                <img src=""img/emerald.png"" alt=""Emerald"">
                <span class=""wins-label"">Wins:</span>
                <span class=""wins-count"">2</span>
              </div>

              <p style=""margin-top:14px;"">Press any key to continue.</p>
            </div>
          ","l","html-keyboard-response","48","2.1.0","298064","5ee00b8630f30b34f2a5dc1c","5ee00b8630f30b34f2a5dc1c","697191ef92bff03015a0bf86","697197253873597a136b3be6","2026-01-22T03:19:14.389Z","","","","","","","","","","",""
"3367","","{""regret_chosen"":84,""regret_not_winner"":100}","survey-html-form","49","2.1.0","301432","5ee00b8630f30b34f2a5dc1c","5ee00b8630f30b34f2a5dc1c","697191ef92bff03015a0bf86","697197253873597a136b3be6","2026-01-22T03:19:14.389Z","","","","9","34","","0","","","[]","NA"
"","","","html-keyboard-response","50","2.1.0","305873","5ee00b8630f30b34f2a5dc1c","5ee00b8630f30b34f2a5dc1c","697191ef92bff03015a0bf86","697197253873597a136b3be6","2026-01-22T03:19:14.389Z","","","","22","36","0.5599999999999998","1","0","8","[35,15,36,30,22,24,32,33]","hot_win_number"
"1873","
            <div style=""max-width:720px; margin:0 auto;"">
              <img
                src=""img/creeper.png""
                alt=""Loss""
                style=""
                  display:block;
                  margin: 0 auto 14px;
                  width: min(280px, 60vw);
                  border-radius: 14px;
                  box-shadow: 0 10px 24px rgba(0,0,0,0.12);
                ""
              />

              <h2 style=""color:#b3122a; margin-bottom:6px;"">
                You got nothing.
              </h2>

              <p>Block that had an emerald: <b>36</b></p>
              <p>Block that you chose: <b>22</b></p>

              <div class=""wins-display"" aria-label=""Wins so far"">
                <img src=""img/emerald.png"" alt=""Emerald"">
                <span class=""wins-label"">Wins:</span>
                <span class=""wins-count"">2</span>
              </div>

              <p style=""margin-top:14px;"">Press any key to continue.</p>
            </div>
          ","l","html-keyboard-response","51","2.1.0","307747","5ee00b8630f30b34f2a5dc1c","5ee00b8630f30b34f2a5dc1c","697191ef92bff03015a0bf86","697197253873597a136b3be6","2026-01-22T03:19:14.389Z","","","","","","","","","","",""
"4616","","{""regret_chosen"":72,""regret_not_winner"":100}","survey-html-form","52","2.1.0","312364","5ee00b8630f30b34f2a5dc1c","5ee00b8630f30b34f2a5dc1c","697191ef92bff03015a0bf86","697197253873597a136b3be6","2026-01-22T03:19:14.389Z","","","","22","36","","1","","","[35,15,36,30,22,24,32,33]","hot_win_number"
"","","","html-keyboard-response","53","2.1.0","315634","5ee00b8630f30b34f2a5dc1c","5ee00b8630f30b34f2a5dc1c","697191ef92bff03015a0bf86","697197253873597a136b3be6","2026-01-22T03:19:14.389Z","","","","24","24","0.9099999999999998","0","1","0","[]","NA"
"1687","
            <div style=""max-width:720px; margin:0 auto;"">
              <img
                src=""img/emerald.png""
                alt=""Win""
                style=""
                  display:block;
                  margin: 0 auto 14px;
                  width: min(280px, 60vw);
                  border-radius: 14px;
                  box-shadow: 0 10px 24px rgba(0,0,0,0.12);
                ""
              />

              <h2 style=""color:#1a7f37; margin-bottom:6px;"">
                You got emerald!
              </h2>

              <p>Block that had an emerald: <b>24</b></p>
              <p>Block that you chose: <b>24</b></p>

              <div class=""wins-display"" aria-label=""Wins so far"">
                <img src=""img/emerald.png"" alt=""Emerald"">
                <span class=""wins-label"">Wins:</span>
                <span class=""wins-count"">3</span>
              </div>

              <p style=""margin-top:14px;"">Press any key to continue.</p>
            </div>
          ","l","html-keyboard-response","54","2.1.0","317322","5ee00b8630f30b34f2a5dc1c","5ee00b8630f30b34f2a5dc1c","697191ef92bff03015a0bf86","697197253873597a136b3be6","2026-01-22T03:19:14.389Z","","","","","","","","","","",""
"3373","","{""regret_chosen"":0}","survey-html-form","55","2.1.0","320695","5ee00b8630f30b34f2a5dc1c","5ee00b8630f30b34f2a5dc1c","697191ef92bff03015a0bf86","697197253873597a136b3be6","2026-01-22T03:19:14.389Z","","","","24","24","","0","","","[]","NA"
"","","","html-keyboard-response","56","2.1.0","322794","5ee00b8630f30b34f2a5dc1c","5ee00b8630f30b34f2a5dc1c","697191ef92bff03015a0bf86","697197253873597a136b3be6","2026-01-22T03:19:14.389Z","","","","22","17","0.8999999999999998","1","0","1","[22]","nonhot_win_number"
"1692","
            <div style=""max-width:720px; margin:0 auto;"">
              <img
                src=""img/creeper.png""
                alt=""Loss""
                style=""
                  display:block;
                  margin: 0 auto 14px;
                  width: min(280px, 60vw);
                  border-radius: 14px;
                  box-shadow: 0 10px 24px rgba(0,0,0,0.12);
                ""
              />

              <h2 style=""color:#b3122a; margin-bottom:6px;"">
                You got nothing.
              </h2>

              <p>Block that had an emerald: <b>17</b></p>
              <p>Block that you chose: <b>22</b></p>

              <div class=""wins-display"" aria-label=""Wins so far"">
                <img src=""img/emerald.png"" alt=""Emerald"">
                <span class=""wins-label"">Wins:</span>
                <span class=""wins-count"">3</span>
              </div>

              <p style=""margin-top:14px;"">Press any key to continue.</p>
            </div>
          ","l","html-keyboard-response","57","2.1.0","324487","5ee00b8630f30b34f2a5dc1c","5ee00b8630f30b34f2a5dc1c","697191ef92bff03015a0bf86","697197253873597a136b3be6","2026-01-22T03:19:14.389Z","","","","","","","","","","",""
"2796","","{""regret_chosen"":59,""regret_not_winner"":100}","survey-html-form","58","2.1.0","327283","5ee00b8630f30b34f2a5dc1c","5ee00b8630f30b34f2a5dc1c","697191ef92bff03015a0bf86","697197253873597a136b3be6","2026-01-22T03:19:14.389Z","","","","22","17","","1","","","[22]","nonhot_win_number"
"","","","html-keyboard-response","59","2.1.0","330422","5ee00b8630f30b34f2a5dc1c","5ee00b8630f30b34f2a5dc1c","697191ef92bff03015a0bf86","697197253873597a136b3be6","2026-01-22T03:19:14.389Z","","","","32","14","0.8899999999999998","1","0","2","[32,14]","hot_win_number"
"1580","
            <div style=""max-width:720px; margin:0 auto;"">
              <img
                src=""img/creeper.png""
                alt=""Loss""
                style=""
                  display:block;
                  margin: 0 auto 14px;
                  width: min(280px, 60vw);
                  border-radius: 14px;
                  box-shadow: 0 10px 24px rgba(0,0,0,0.12);
                ""
              />

              <h2 style=""color:#b3122a; margin-bottom:6px;"">
                You got nothing.
              </h2>

              <p>Block that had an emerald: <b>14</b></p>
              <p>Block that you chose: <b>32</b></p>

              <div class=""wins-display"" aria-label=""Wins so far"">
                <img src=""img/emerald.png"" alt=""Emerald"">
                <span class=""wins-label"">Wins:</span>
                <span class=""wins-count"">3</span>
              </div>

              <p style=""margin-top:14px;"">Press any key to continue.</p>
            </div>
          ","l","html-keyboard-response","60","2.1.0","332003","5ee00b8630f30b34f2a5dc1c","5ee00b8630f30b34f2a5dc1c","697191ef92bff03015a0bf86","697197253873597a136b3be6","2026-01-22T03:19:14.389Z","","","","","","","","","","",""
"4381","","{""regret_chosen"":100,""regret_not_winner"":100}","survey-html-form","61","2.1.0","336385","5ee00b8630f30b34f2a5dc1c","5ee00b8630f30b34f2a5dc1c","697191ef92bff03015a0bf86","697197253873597a136b3be6","2026-01-22T03:19:14.389Z","","","","32","14","","1","","","[32,14]","hot_win_number"
"","","","html-keyboard-response","62","2.1.0","339857","5ee00b8630f30b34f2a5dc1c","5ee00b8630f30b34f2a5dc1c","697191ef92bff03015a0bf86","697197253873597a136b3be6","2026-01-22T03:19:14.389Z","","","","32","15","0.8799999999999998","1","0","1","[8]","nonhot_win_number"
"1824","
            <div style=""max-width:720px; margin:0 auto;"">
              <img
                src=""img/creeper.png""
                alt=""Loss""
                style=""
                  display:block;
                  margin: 0 auto 14px;
                  width: min(280px, 60vw);
                  border-radius: 14px;
                  box-shadow: 0 10px 24px rgba(0,0,0,0.12);
                ""
              />

              <h2 style=""color:#b3122a; margin-bottom:6px;"">
                You got nothing.
              </h2>

              <p>Block that had an emerald: <b>15</b></p>
              <p>Block that you chose: <b>32</b></p>

              <div class=""wins-display"" aria-label=""Wins so far"">
                <img src=""img/emerald.png"" alt=""Emerald"">
                <span class=""wins-label"">Wins:</span>
                <span class=""wins-count"">3</span>
              </div>

              <p style=""margin-top:14px;"">Press any key to continue.</p>
            </div>
          ",";","html-keyboard-response","63","2.1.0","341682","5ee00b8630f30b34f2a5dc1c","5ee00b8630f30b34f2a5dc1c","697191ef92bff03015a0bf86","697197253873597a136b3be6","2026-01-22T03:19:14.389Z","","","","","","","","","","",""
"3864","","{""regret_chosen"":90,""regret_not_winner"":100}","survey-html-form","64","2.1.0","345547","5ee00b8630f30b34f2a5dc1c","5ee00b8630f30b34f2a5dc1c","697191ef92bff03015a0bf86","697197253873597a136b3be6","2026-01-22T03:19:14.389Z","","","","32","15","","1","","","[8]","nonhot_win_number"
"","","","html-keyboard-response","65","2.1.0","351280","5ee00b8630f30b34f2a5dc1c","5ee00b8630f30b34f2a5dc1c","697191ef92bff03015a0bf86","697197253873597a136b3be6","2026-01-22T03:19:14.389Z","","","","22","1","0.8699999999999998","0","0","0","[]","NA"
"2340","
            <div style=""max-width:720px; margin:0 auto;"">
              <img
                src=""img/creeper.png""
                alt=""Loss""
                style=""
                  display:block;
                  margin: 0 auto 14px;
                  width: min(280px, 60vw);
                  border-radius: 14px;
                  box-shadow: 0 10px 24px rgba(0,0,0,0.12);
                ""
              />

              <h2 style=""color:#b3122a; margin-bottom:6px;"">
                You got nothing.
              </h2>

              <p>Block that had an emerald: <b>1</b></p>
              <p>Block that you chose: <b>22</b></p>

              <div class=""wins-display"" aria-label=""Wins so far"">
                <img src=""img/emerald.png"" alt=""Emerald"">
                <span class=""wins-label"">Wins:</span>
                <span class=""wins-count"">3</span>
              </div>

              <p style=""margin-top:14px;"">Press any key to continue.</p>
            </div>
          ","l","html-keyboard-response","66","2.1.0","353620","5ee00b8630f30b34f2a5dc1c","5ee00b8630f30b34f2a5dc1c","697191ef92bff03015a0bf86","697197253873597a136b3be6","2026-01-22T03:19:14.389Z","","","","","","","","","","",""
"4605","","{""regret_chosen"":86,""regret_not_winner"":100}","survey-html-form","67","2.1.0","358225","5ee00b8630f30b34f2a5dc1c","5ee00b8630f30b34f2a5dc1c","697191ef92bff03015a0bf86","697197253873597a136b3be6","2026-01-22T03:19:14.389Z","","","","22","1","","0","","","[]","NA"
"","","","html-keyboard-response","68","2.1.0","363255","5ee00b8630f30b34f2a5dc1c","5ee00b8630f30b34f2a5dc1c","697191ef92bff03015a0bf86","697197253873597a136b3be6","2026-01-22T03:19:14.389Z","","","","17","17","1.2199999999999998","0","1","0","[]","NA"
"1681","
            <div style=""max-width:720px; margin:0 auto;"">
              <img
                src=""img/emerald.png""
                alt=""Win""
                style=""
                  display:block;
                  margin: 0 auto 14px;
                  width: min(280px, 60vw);
                  border-radius: 14px;
                  box-shadow: 0 10px 24px rgba(0,0,0,0.12);
                ""
              />

              <h2 style=""color:#1a7f37; margin-bottom:6px;"">
                You got emerald!
              </h2>

              <p>Block that had an emerald: <b>17</b></p>
              <p>Block that you chose: <b>17</b></p>

              <div class=""wins-display"" aria-label=""Wins so far"">
                <img src=""img/emerald.png"" alt=""Emerald"">
                <span class=""wins-label"">Wins:</span>
                <span class=""wins-count"">4</span>
              </div>

              <p style=""margin-top:14px;"">Press any key to continue.</p>
            </div>
          ","l","html-keyboard-response","69","2.1.0","364937","5ee00b8630f30b34f2a5dc1c","5ee00b8630f30b34f2a5dc1c","697191ef92bff03015a0bf86","697197253873597a136b3be6","2026-01-22T03:19:14.389Z","","","","","","","","","","",""
"2467","","{""regret_chosen"":0}","survey-html-form","70","2.1.0","367404","5ee00b8630f30b34f2a5dc1c","5ee00b8630f30b34f2a5dc1c","697191ef92bff03015a0bf86","697197253873597a136b3be6","2026-01-22T03:19:14.389Z","","","","17","17","","0","","","[]","NA"
"","","","html-keyboard-response","71","2.1.0","369476","5ee00b8630f30b34f2a5dc1c","5ee00b8630f30b34f2a5dc1c","697191ef92bff03015a0bf86","697197253873597a136b3be6","2026-01-22T03:19:14.389Z","","","","1","31","1.2099999999999997","0","0","0","[]","NA"
"1498","
            <div style=""max-width:720px; margin:0 auto;"">
              <img
                src=""img/creeper.png""
                alt=""Loss""
                style=""
                  display:block;
                  margin: 0 auto 14px;
                  width: min(280px, 60vw);
                  border-radius: 14px;
                  box-shadow: 0 10px 24px rgba(0,0,0,0.12);
                ""
              />

              <h2 style=""color:#b3122a; margin-bottom:6px;"">
                You got nothing.
              </h2>

              <p>Block that had an emerald: <b>31</b></p>
              <p>Block that you chose: <b>1</b></p>

              <div class=""wins-display"" aria-label=""Wins so far"">
                <img src=""img/emerald.png"" alt=""Emerald"">
                <span class=""wins-label"">Wins:</span>
                <span class=""wins-count"">4</span>
              </div>

              <p style=""margin-top:14px;"">Press any key to continue.</p>
            </div>
          ","l","html-keyboard-response","72","2.1.0","370974","5ee00b8630f30b34f2a5dc1c","5ee00b8630f30b34f2a5dc1c","697191ef92bff03015a0bf86","697197253873597a136b3be6","2026-01-22T03:19:14.389Z","","","","","","","","","","",""
"6270","","{""regret_chosen"":80,""regret_not_winner"":100}","survey-html-form","73","2.1.0","377246","5ee00b8630f30b34f2a5dc1c","5ee00b8630f30b34f2a5dc1c","697191ef92bff03015a0bf86","697197253873597a136b3be6","2026-01-22T03:19:14.389Z","","","","1","31","","0","","","[]","NA"
"","","","html-keyboard-response","74","2.1.0","383611","5ee00b8630f30b34f2a5dc1c","5ee00b8630f30b34f2a5dc1c","697191ef92bff03015a0bf86","697197253873597a136b3be6","2026-01-22T03:19:14.389Z","","","","20","9","1.1999999999999997","1","0","16","[28,8,34,20,7,4,31,15,2,29,17,27,19,25,30,18]","nonhot_win_number"
"1485","
            <div style=""max-width:720px; margin:0 auto;"">
              <img
                src=""img/creeper.png""
                alt=""Loss""
                style=""
                  display:block;
                  margin: 0 auto 14px;
                  width: min(280px, 60vw);
                  border-radius: 14px;
                  box-shadow: 0 10px 24px rgba(0,0,0,0.12);
                ""
              />

              <h2 style=""color:#b3122a; margin-bottom:6px;"">
                You got nothing.
              </h2>

              <p>Block that had an emerald: <b>9</b></p>
              <p>Block that you chose: <b>20</b></p>

              <div class=""wins-display"" aria-label=""Wins so far"">
                <img src=""img/emerald.png"" alt=""Emerald"">
                <span class=""wins-label"">Wins:</span>
                <span class=""wins-count"">4</span>
              </div>

              <p style=""margin-top:14px;"">Press any key to continue.</p>
            </div>
          ","l","html-keyboard-response","75","2.1.0","385096","5ee00b8630f30b34f2a5dc1c","5ee00b8630f30b34f2a5dc1c","697191ef92bff03015a0bf86","697197253873597a136b3be6","2026-01-22T03:19:14.389Z","","","","","","","","","","",""
"5525","","{""regret_chosen"":55,""regret_not_winner"":87}","survey-html-form","76","2.1.0","390622","5ee00b8630f30b34f2a5dc1c","5ee00b8630f30b34f2a5dc1c","697191ef92bff03015a0bf86","697197253873597a136b3be6","2026-01-22T03:19:14.389Z","","","","20","9","","1","","","[28,8,34,20,7,4,31,15,2,29,17,27,19,25,30,18]","nonhot_win_number"
"15785","","{""feedback"":"""",""age"":36,""gamble_freq_12mo"":""A few times"",""hot_reliance"":""Sometimes"",""race"":""White"",""gender"":""Male"",""ethnicity"":""Non-Hispanic""}","survey-html-form","77","2.1.0","406408","5ee00b8630f30b34f2a5dc1c","5ee00b8630f30b34f2a5dc1c","697191ef92bff03015a0bf86","697197253873597a136b3be6","2026-01-22T03:19:14.389Z","","","","","","","","","","",""
